{"_id":{"$oid":"5c4397ae2747000004a65d2d"},"data":{"responseType":"start","participantID":"e7v4ru8haemf5x1ep9lex0c91enu10dh","conditionNumber":0},"__v":0}
{"_id":{"$oid":"5c4398032747000004a65d2e"},"data":[{"rt":5280,"responses":"{\"Q0\":\" I consent to participate\"}","trial_type":"survey-multi-choice","trial_index":0,"time_elapsed":5287,"internal_node_id":"0.0-0.0","responseType":"finish","participantID":"e7v4ru8haemf5x1ep9lex0c91enu10dh","conditionNumber":0},{"trial_type":"call-function","trial_index":1,"time_elapsed":5295,"internal_node_id":"0.0-1.0","responseType":"finish","participantID":"e7v4ru8haemf5x1ep9lex0c91enu10dh","conditionNumber":0},{"view_history":"[{\"page_index\":0,\"viewing_time\":10285}]","rt":10286,"trial_type":"instructions","trial_index":2,"time_elapsed":15582,"internal_node_id":"0.0-2.0","responseType":"finish","participantID":"e7v4ru8haemf5x1ep9lex0c91enu10dh","conditionNumber":0},{"rt":null,"stimulus":"\u003cblockquote\u003e\n  \u003cp\u003eA man walks into a bar and asks the bartender for a glass of water. The bartender reaches under the bar and brings out a gun and aims it at the man. The man says thank you and leaves.\u003c/p\u003e\n  \u003cp\u003e\u003cem\u003eWhat happened?\u003c/em\u003e\u003c/p\u003e\n\u003c/blockquote\u003e","key_press":null,"trial_type":"html-keyboard-response","trial_index":3,"time_elapsed":40587,"internal_node_id":"0.0-3.0-0.0","responseType":"finish","participantID":"e7v4ru8haemf5x1ep9lex0c91enu10dh","conditionNumber":0},{"rt":null,"stimulus":"\u003cblockquote\u003e\n  \u003cp\u003eHiccups.\u003c/p\u003e\n\u003c/blockquote\u003e","key_press":null,"trial_type":"html-keyboard-response","trial_index":4,"time_elapsed":50590,"internal_node_id":"0.0-3.0-1.0","responseType":"finish","participantID":"e7v4ru8haemf5x1ep9lex0c91enu10dh","conditionNumber":0},{"rt":31221,"response":"83","stimulus":"Please rate how you felt once you understood the solution to the riddle.","trial_type":"html-slider-response","trial_index":5,"time_elapsed":81819,"internal_node_id":"0.0-4.0-0.0","responseType":"finish","participantID":"e7v4ru8haemf5x1ep9lex0c91enu10dh","conditionNumber":0},{"rt":7947,"response":"81","stimulus":"An Aha! moment is when the solution suddenly dawns on you and everything is clear immediately. In a flash. As an example, imagine a light bulb that is switched on all at once in contrast to slowly turning up the lights. Did you experience an Aha! moment upon getting the solution to this puzzle? ","trial_type":"html-slider-response","trial_index":6,"time_elapsed":89771,"internal_node_id":"0.0-4.0-0.1","responseType":"finish","participantID":"e7v4ru8haemf5x1ep9lex0c91enu10dh","conditionNumber":0}],"__v":0}
{"_id":{"$oid":"5c43b605a93b980004ddeb49"},"data":{"responseType":"start","participantID":"z11mpb133ft785444o8j9ewhxa37fyjb","conditionNumber":0},"__v":0}
{"_id":{"$oid":"5c43b61ba93b980004ddeb4a"},"data":{"responseType":"start","participantID":"f4f33vfbog47vn70nm9hn1zusqd73joj","conditionNumber":1},"__v":0}
{"_id":{"$oid":"5c43b626a93b980004ddeb4b"},"data":{"responseType":"start","participantID":"fc5qwuzcfjvq7kpxblryjgr8crrmhg99","conditionNumber":1},"__v":0}
{"_id":{"$oid":"5c43b638a93b980004ddeb4c"},"data":[{"rt":3213,"responses":"{\"Q0\":\" I consent to participate\"}","trial_type":"survey-multi-choice","trial_index":0,"time_elapsed":3218,"internal_node_id":"0.0-0.0","responseType":"finish","participantID":"z11mpb133ft785444o8j9ewhxa37fyjb","conditionNumber":0},{"trial_type":"call-function","trial_index":1,"time_elapsed":3224,"internal_node_id":"0.0-1.0","responseType":"finish","participantID":"z11mpb133ft785444o8j9ewhxa37fyjb","conditionNumber":0},{"view_history":"[{\"page_index\":0,\"viewing_time\":3992}]","rt":3992,"trial_type":"instructions","trial_index":2,"time_elapsed":7216,"internal_node_id":"0.0-2.0","responseType":"finish","participantID":"z11mpb133ft785444o8j9ewhxa37fyjb","conditionNumber":0},{"rt":null,"stimulus":"\u003cblockquote\u003e\n  \u003cp\u003eA man walks into a bar and asks the bartender for a glass of water. The bartender reaches under the bar and brings out a gun and aims it at the man. The man says thank you and leaves.\u003c/p\u003e\n  \u003cp\u003e\u003cem\u003eWhat happened?\u003c/em\u003e\u003c/p\u003e\n\u003c/blockquote\u003e","key_press":null,"trial_type":"html-keyboard-response","trial_index":3,"time_elapsed":32219,"internal_node_id":"0.0-3.0-0.0","responseType":"finish","participantID":"z11mpb133ft785444o8j9ewhxa37fyjb","conditionNumber":0},{"rt":null,"stimulus":"\u003cblockquote\u003e\n  \u003cp\u003eHiccups.\u003c/p\u003e\n\u003c/blockquote\u003e","key_press":null,"trial_type":"html-keyboard-response","trial_index":4,"time_elapsed":42220,"internal_node_id":"0.0-3.0-1.0","responseType":"finish","participantID":"z11mpb133ft785444o8j9ewhxa37fyjb","conditionNumber":0},{"rt":8203,"response":"63","stimulus":"An Aha! moment is when the solution suddenly dawns on you and everything is clear immediately. In a flash. As an example, imagine a light bulb that is switched on all at once in contrast to slowly turning up the lights. Did you experience an Aha! moment upon getting the solution to this puzzle? ","trial_type":"html-slider-response","trial_index":5,"time_elapsed":50426,"internal_node_id":"0.0-4.0-0.0","responseType":"finish","participantID":"z11mpb133ft785444o8j9ewhxa37fyjb","conditionNumber":0},{"rt":3553,"response":"61","stimulus":"Please rate how you felt once you understood the solution to the riddle.","trial_type":"html-slider-response","trial_index":6,"time_elapsed":53981,"internal_node_id":"0.0-4.0-0.1","responseType":"finish","participantID":"z11mpb133ft785444o8j9ewhxa37fyjb","conditionNumber":0}],"__v":0}
{"_id":{"$oid":"5c43b63ea93b980004ddeb4d"},"data":{"responseType":"start","participantID":"z9qrppgm5rz9x6qgt94zajloa7q60fyv","conditionNumber":1},"__v":0}
{"_id":{"$oid":"5c43b654a93b980004ddeb4e"},"data":[{"rt":3951,"responses":"{\"Q0\":\" I consent to participate\"}","trial_type":"survey-multi-choice","trial_index":0,"time_elapsed":3979,"internal_node_id":"0.0-0.0","responseType":"finish","participantID":"f4f33vfbog47vn70nm9hn1zusqd73joj","conditionNumber":1},{"trial_type":"call-function","trial_index":1,"time_elapsed":3985,"internal_node_id":"0.0-1.0","responseType":"finish","participantID":"f4f33vfbog47vn70nm9hn1zusqd73joj","conditionNumber":1},{"view_history":"[{\"page_index\":0,\"viewing_time\":8607}]","rt":8607,"trial_type":"instructions","trial_index":2,"time_elapsed":12592,"internal_node_id":"0.0-2.0","responseType":"finish","participantID":"f4f33vfbog47vn70nm9hn1zusqd73joj","conditionNumber":1},{"rt":null,"stimulus":"\u003cblockquote\u003e\n  \u003cp\u003eA man walks into a bar and asks the bartender for a glass of water. The bartender reaches under the bar and brings out a gun and aims it at the man. The man says thank you and leaves.\u003c/p\u003e\n  \u003cp\u003e\u003cem\u003eWhat happened?\u003c/em\u003e\u003c/p\u003e\n\u003c/blockquote\u003e","key_press":null,"trial_type":"html-keyboard-response","trial_index":3,"time_elapsed":32595,"internal_node_id":"0.0-3.0-0.0","responseType":"finish","participantID":"f4f33vfbog47vn70nm9hn1zusqd73joj","conditionNumber":1},{"rt":null,"stimulus":"\u003cblockquote\u003e\n  \u003cp\u003eWe will now give you a \u003cstrong\u003ehint\u003c/strong\u003e that will help you get the answer to this puzzle.\u003c/p\u003e\n\u003c/blockquote\u003e","key_press":null,"trial_type":"html-keyboard-response","trial_index":4,"time_elapsed":37596,"internal_node_id":"0.0-3.0-1.0","responseType":"finish","participantID":"f4f33vfbog47vn70nm9hn1zusqd73joj","conditionNumber":1},{"rt":null,"stimulus":"\u003cblockquote\u003e\n  \u003cp\u003eHiccups.\u003c/p\u003e\n\u003c/blockquote\u003e","key_press":null,"trial_type":"html-keyboard-response","trial_index":5,"time_elapsed":47598,"internal_node_id":"0.0-3.0-2.0","responseType":"finish","participantID":"f4f33vfbog47vn70nm9hn1zusqd73joj","conditionNumber":1},{"rt":4686,"response":"95","stimulus":"Please rate how you felt once you understood the solution to the riddle.","trial_type":"html-slider-response","trial_index":6,"time_elapsed":52289,"internal_node_id":"0.0-4.0-0.0","responseType":"finish","participantID":"f4f33vfbog47vn70nm9hn1zusqd73joj","conditionNumber":1},{"rt":9076,"response":"99","stimulus":"An Aha! moment is when the solution suddenly dawns on you and everything is clear immediately. In a flash. As an example, imagine a light bulb that is switched on all at once in contrast to slowly turning up the lights. Did you experience an Aha! moment upon getting the solution to this puzzle? ","trial_type":"html-slider-response","trial_index":7,"time_elapsed":61367,"internal_node_id":"0.0-4.0-0.1","responseType":"finish","participantID":"f4f33vfbog47vn70nm9hn1zusqd73joj","conditionNumber":1}],"__v":0}
{"_id":{"$oid":"5c43b661a93b980004ddeb4f"},"data":[{"rt":4686,"responses":"{\"Q0\":\" I consent to participate\"}","trial_type":"survey-multi-choice","trial_index":0,"time_elapsed":4706,"internal_node_id":"0.0-0.0","responseType":"finish","participantID":"fc5qwuzcfjvq7kpxblryjgr8crrmhg99","conditionNumber":1},{"trial_type":"call-function","trial_index":1,"time_elapsed":4711,"internal_node_id":"0.0-1.0","responseType":"finish","participantID":"fc5qwuzcfjvq7kpxblryjgr8crrmhg99","conditionNumber":1},{"view_history":"[{\"page_index\":0,\"viewing_time\":5945}]","rt":5945,"trial_type":"instructions","trial_index":2,"time_elapsed":10657,"internal_node_id":"0.0-2.0","responseType":"finish","participantID":"fc5qwuzcfjvq7kpxblryjgr8crrmhg99","conditionNumber":1},{"rt":null,"stimulus":"\u003cblockquote\u003e\n  \u003cp\u003eA man walks into a bar and asks the bartender for a glass of water. The bartender reaches under the bar and brings out a gun and aims it at the man. The man says thank you and leaves.\u003c/p\u003e\n  \u003cp\u003e\u003cem\u003eWhat happened?\u003c/em\u003e\u003c/p\u003e\n\u003c/blockquote\u003e","key_press":null,"trial_type":"html-keyboard-response","trial_index":3,"time_elapsed":30659,"internal_node_id":"0.0-3.0-0.0","responseType":"finish","participantID":"fc5qwuzcfjvq7kpxblryjgr8crrmhg99","conditionNumber":1},{"rt":null,"stimulus":"\u003cblockquote\u003e\n  \u003cp\u003eWe will now give you a \u003cstrong\u003ehint\u003c/strong\u003e that will help you get the answer to this puzzle.\u003c/p\u003e\n\u003c/blockquote\u003e","key_press":null,"trial_type":"html-keyboard-response","trial_index":4,"time_elapsed":35659,"internal_node_id":"0.0-3.0-1.0","responseType":"finish","participantID":"fc5qwuzcfjvq7kpxblryjgr8crrmhg99","conditionNumber":1},{"rt":null,"stimulus":"\u003cblockquote\u003e\n  \u003cp\u003eHiccups.\u003c/p\u003e\n\u003c/blockquote\u003e","key_press":null,"trial_type":"html-keyboard-response","trial_index":5,"time_elapsed":45661,"internal_node_id":"0.0-3.0-2.0","responseType":"finish","participantID":"fc5qwuzcfjvq7kpxblryjgr8crrmhg99","conditionNumber":1},{"rt":11688,"response":"9","stimulus":"An Aha! moment is when the solution suddenly dawns on you and everything is clear immediately. In a flash. As an example, imagine a light bulb that is switched on all at once in contrast to slowly turning up the lights. Did you experience an Aha! moment upon getting the solution to this puzzle? ","trial_type":"html-slider-response","trial_index":6,"time_elapsed":57351,"internal_node_id":"0.0-4.0-0.0","responseType":"finish","participantID":"fc5qwuzcfjvq7kpxblryjgr8crrmhg99","conditionNumber":1},{"rt":6515,"response":"53","stimulus":"Please rate how you felt once you understood the solution to the riddle.","trial_type":"html-slider-response","trial_index":7,"time_elapsed":63867,"internal_node_id":"0.0-4.0-0.1","responseType":"finish","participantID":"fc5qwuzcfjvq7kpxblryjgr8crrmhg99","conditionNumber":1}],"__v":0}
{"_id":{"$oid":"5c43b672a93b980004ddeb50"},"data":[{"rt":4672,"responses":"{\"Q0\":\" I consent to participate\"}","trial_type":"survey-multi-choice","trial_index":0,"time_elapsed":4686,"internal_node_id":"0.0-0.0","responseType":"finish","participantID":"z9qrppgm5rz9x6qgt94zajloa7q60fyv","conditionNumber":1},{"trial_type":"call-function","trial_index":1,"time_elapsed":4695,"internal_node_id":"0.0-1.0","responseType":"finish","participantID":"z9qrppgm5rz9x6qgt94zajloa7q60fyv","conditionNumber":1},{"view_history":"[{\"page_index\":0,\"viewing_time\":3899}]","rt":3899,"trial_type":"instructions","trial_index":2,"time_elapsed":8596,"internal_node_id":"0.0-2.0","responseType":"finish","participantID":"z9qrppgm5rz9x6qgt94zajloa7q60fyv","conditionNumber":1},{"rt":null,"stimulus":"\u003cblockquote\u003e\n  \u003cp\u003eA man walks into a bar and asks the bartender for a glass of water. The bartender reaches under the bar and brings out a gun and aims it at the man. The man says thank you and leaves.\u003c/p\u003e\n  \u003cp\u003e\u003cem\u003eWhat happened?\u003c/em\u003e\u003c/p\u003e\n\u003c/blockquote\u003e","key_press":null,"trial_type":"html-keyboard-response","trial_index":3,"time_elapsed":30338,"internal_node_id":"0.0-3.0-0.0","responseType":"finish","participantID":"z9qrppgm5rz9x6qgt94zajloa7q60fyv","conditionNumber":1},{"rt":null,"stimulus":"\u003cblockquote\u003e\n  \u003cp\u003eWe will now give you a \u003cstrong\u003ehint\u003c/strong\u003e that will help you get the answer to this puzzle.\u003c/p\u003e\n\u003c/blockquote\u003e","key_press":null,"trial_type":"html-keyboard-response","trial_index":4,"time_elapsed":35876,"internal_node_id":"0.0-3.0-1.0","responseType":"finish","participantID":"z9qrppgm5rz9x6qgt94zajloa7q60fyv","conditionNumber":1},{"rt":null,"stimulus":"\u003cblockquote\u003e\n  \u003cp\u003eHiccups.\u003c/p\u003e\n\u003c/blockquote\u003e","key_press":null,"trial_type":"html-keyboard-response","trial_index":5,"time_elapsed":45876,"internal_node_id":"0.0-3.0-2.0","responseType":"finish","participantID":"z9qrppgm5rz9x6qgt94zajloa7q60fyv","conditionNumber":1},{"rt":6036,"response":"11","stimulus":"An Aha! moment is when the solution suddenly dawns on you and everything is clear immediately. In a flash. As an example, imagine a light bulb that is switched on all at once in contrast to slowly turning up the lights. Did you experience an Aha! moment upon getting the solution to this puzzle? ","trial_type":"html-slider-response","trial_index":6,"time_elapsed":51918,"internal_node_id":"0.0-4.0-0.0","responseType":"finish","participantID":"z9qrppgm5rz9x6qgt94zajloa7q60fyv","conditionNumber":1},{"rt":4166,"response":"50","stimulus":"Please rate how you felt once you understood the solution to the riddle.","trial_type":"html-slider-response","trial_index":7,"time_elapsed":56086,"internal_node_id":"0.0-4.0-0.1","responseType":"finish","participantID":"z9qrppgm5rz9x6qgt94zajloa7q60fyv","conditionNumber":1}],"__v":0}
{"_id":{"$oid":"5c43b687a93b980004ddeb51"},"data":{"responseType":"start","participantID":"jdqs1670ahx11a4y9kcml4u3ch0k0szq","conditionNumber":1},"__v":0}
{"_id":{"$oid":"5c43b693a93b980004ddeb52"},"data":{"responseType":"start","participantID":"v4s03zwl9z3srn2lmajxko7xj2h5sz73","conditionNumber":1},"__v":0}
{"_id":{"$oid":"5c43b6aaa93b980004ddeb53"},"data":{"responseType":"start","participantID":"sjbzp4b324h0q7zt2b7ww74hkh8o27y1","conditionNumber":1},"__v":0}
{"_id":{"$oid":"5c43b6c5a93b980004ddeb54"},"data":[{"rt":4204,"responses":"{\"Q0\":\" I consent to participate\"}","trial_type":"survey-multi-choice","trial_index":0,"time_elapsed":4215,"internal_node_id":"0.0-0.0","responseType":"finish","participantID":"jdqs1670ahx11a4y9kcml4u3ch0k0szq","conditionNumber":1},{"trial_type":"call-function","trial_index":1,"time_elapsed":4224,"internal_node_id":"0.0-1.0","responseType":"finish","participantID":"jdqs1670ahx11a4y9kcml4u3ch0k0szq","conditionNumber":1},{"view_history":"[{\"page_index\":0,\"viewing_time\":6459}]","rt":6459,"trial_type":"instructions","trial_index":2,"time_elapsed":10686,"internal_node_id":"0.0-2.0","responseType":"finish","participantID":"jdqs1670ahx11a4y9kcml4u3ch0k0szq","conditionNumber":1},{"rt":null,"stimulus":"\u003cblockquote\u003e\n  \u003cp\u003eA man walks into a bar and asks the bartender for a glass of water. The bartender reaches under the bar and brings out a gun and aims it at the man. The man says thank you and leaves.\u003c/p\u003e\n  \u003cp\u003e\u003cem\u003eWhat happened?\u003c/em\u003e\u003c/p\u003e\n\u003c/blockquote\u003e","key_press":null,"trial_type":"html-keyboard-response","trial_index":3,"time_elapsed":30690,"internal_node_id":"0.0-3.0-0.0","responseType":"finish","participantID":"jdqs1670ahx11a4y9kcml4u3ch0k0szq","conditionNumber":1},{"rt":null,"stimulus":"\u003cblockquote\u003e\n  \u003cp\u003eWe will now give you a \u003cstrong\u003ehint\u003c/strong\u003e that will help you get the answer to this puzzle.\u003c/p\u003e\n\u003c/blockquote\u003e","key_press":null,"trial_type":"html-keyboard-response","trial_index":4,"time_elapsed":35692,"internal_node_id":"0.0-3.0-1.0","responseType":"finish","participantID":"jdqs1670ahx11a4y9kcml4u3ch0k0szq","conditionNumber":1},{"rt":null,"stimulus":"\u003cblockquote\u003e\n  \u003cp\u003eHiccups.\u003c/p\u003e\n\u003c/blockquote\u003e","key_press":null,"trial_type":"html-keyboard-response","trial_index":5,"time_elapsed":45695,"internal_node_id":"0.0-3.0-2.0","responseType":"finish","participantID":"jdqs1670ahx11a4y9kcml4u3ch0k0szq","conditionNumber":1},{"rt":13735,"response":"90","stimulus":"Please rate how you felt once you understood the solution to the riddle.","trial_type":"html-slider-response","trial_index":6,"time_elapsed":59438,"internal_node_id":"0.0-4.0-0.0","responseType":"finish","participantID":"jdqs1670ahx11a4y9kcml4u3ch0k0szq","conditionNumber":1},{"rt":6461,"response":"97","stimulus":"An Aha! moment is when the solution suddenly dawns on you and everything is clear immediately. In a flash. As an example, imagine a light bulb that is switched on all at once in contrast to slowly turning up the lights. Did you experience an Aha! moment upon getting the solution to this puzzle? ","trial_type":"html-slider-response","trial_index":7,"time_elapsed":65902,"internal_node_id":"0.0-4.0-0.1","responseType":"finish","participantID":"jdqs1670ahx11a4y9kcml4u3ch0k0szq","conditionNumber":1}],"__v":0}
{"_id":{"$oid":"5c43b6d9a93b980004ddeb55"},"data":[{"rt":6977,"responses":"{\"Q0\":\" I consent to participate\"}","trial_type":"survey-multi-choice","trial_index":0,"time_elapsed":6985,"internal_node_id":"0.0-0.0","responseType":"finish","participantID":"sjbzp4b324h0q7zt2b7ww74hkh8o27y1","conditionNumber":1},{"trial_type":"call-function","trial_index":1,"time_elapsed":6988,"internal_node_id":"0.0-1.0","responseType":"finish","participantID":"sjbzp4b324h0q7zt2b7ww74hkh8o27y1","conditionNumber":1},{"view_history":"[{\"page_index\":0,\"viewing_time\":3511}]","rt":3511,"trial_type":"instructions","trial_index":2,"time_elapsed":10499,"internal_node_id":"0.0-2.0","responseType":"finish","participantID":"sjbzp4b324h0q7zt2b7ww74hkh8o27y1","conditionNumber":1},{"rt":null,"stimulus":"\u003cblockquote\u003e\n  \u003cp\u003eA man walks into a bar and asks the bartender for a glass of water. The bartender reaches under the bar and brings out a gun and aims it at the man. The man says thank you and leaves.\u003c/p\u003e\n  \u003cp\u003e\u003cem\u003eWhat happened?\u003c/em\u003e\u003c/p\u003e\n\u003c/blockquote\u003e","key_press":null,"trial_type":"html-keyboard-response","trial_index":3,"time_elapsed":31255,"internal_node_id":"0.0-3.0-0.0","responseType":"finish","participantID":"sjbzp4b324h0q7zt2b7ww74hkh8o27y1","conditionNumber":1},{"rt":null,"stimulus":"\u003cblockquote\u003e\n  \u003cp\u003eWe will now give you a \u003cstrong\u003ehint\u003c/strong\u003e that will help you get the answer to this puzzle.\u003c/p\u003e\n\u003c/blockquote\u003e","key_press":null,"trial_type":"html-keyboard-response","trial_index":4,"time_elapsed":37257,"internal_node_id":"0.0-3.0-1.0","responseType":"finish","participantID":"sjbzp4b324h0q7zt2b7ww74hkh8o27y1","conditionNumber":1},{"rt":null,"stimulus":"\u003cblockquote\u003e\n  \u003cp\u003eHiccups.\u003c/p\u003e\n\u003c/blockquote\u003e","key_press":null,"trial_type":"html-keyboard-response","trial_index":5,"time_elapsed":47258,"internal_node_id":"0.0-3.0-2.0","responseType":"finish","participantID":"sjbzp4b324h0q7zt2b7ww74hkh8o27y1","conditionNumber":1},{"rt":4030,"response":"27","stimulus":"An Aha! moment is when the solution suddenly dawns on you and everything is clear immediately. In a flash. As an example, imagine a light bulb that is switched on all at once in contrast to slowly turning up the lights. Did you experience an Aha! moment upon getting the solution to this puzzle? ","trial_type":"html-slider-response","trial_index":6,"time_elapsed":51291,"internal_node_id":"0.0-4.0-0.0","responseType":"finish","participantID":"sjbzp4b324h0q7zt2b7ww74hkh8o27y1","conditionNumber":1},{"rt":2826,"response":"70","stimulus":"Please rate how you felt once you understood the solution to the riddle.","trial_type":"html-slider-response","trial_index":7,"time_elapsed":54119,"internal_node_id":"0.0-4.0-0.1","responseType":"finish","participantID":"sjbzp4b324h0q7zt2b7ww74hkh8o27y1","conditionNumber":1}],"__v":0}
{"_id":{"$oid":"5c43b6eca93b980004ddeb56"},"data":[{"rt":31988,"responses":"{\"Q0\":\" I consent to participate\"}","trial_type":"survey-multi-choice","trial_index":0,"time_elapsed":32088,"internal_node_id":"0.0-0.0","responseType":"finish","participantID":"v4s03zwl9z3srn2lmajxko7xj2h5sz73","conditionNumber":1},{"trial_type":"call-function","trial_index":1,"time_elapsed":32113,"internal_node_id":"0.0-1.0","responseType":"finish","participantID":"v4s03zwl9z3srn2lmajxko7xj2h5sz73","conditionNumber":1},{"view_history":"[{\"page_index\":0,\"viewing_time\":4116}]","rt":4117,"trial_type":"instructions","trial_index":2,"time_elapsed":36232,"internal_node_id":"0.0-2.0","responseType":"finish","participantID":"v4s03zwl9z3srn2lmajxko7xj2h5sz73","conditionNumber":1},{"rt":null,"stimulus":"\u003cblockquote\u003e\n  \u003cp\u003eA man walks into a bar and asks the bartender for a glass of water. The bartender reaches under the bar and brings out a gun and aims it at the man. The man says thank you and leaves.\u003c/p\u003e\n  \u003cp\u003e\u003cem\u003eWhat happened?\u003c/em\u003e\u003c/p\u003e\n\u003c/blockquote\u003e","key_press":null,"trial_type":"html-keyboard-response","trial_index":3,"time_elapsed":56237,"internal_node_id":"0.0-3.0-0.0","responseType":"finish","participantID":"v4s03zwl9z3srn2lmajxko7xj2h5sz73","conditionNumber":1},{"rt":null,"stimulus":"\u003cblockquote\u003e\n  \u003cp\u003eWe will now give you a \u003cstrong\u003ehint\u003c/strong\u003e that will help you get the answer to this puzzle.\u003c/p\u003e\n\u003c/blockquote\u003e","key_press":null,"trial_type":"html-keyboard-response","trial_index":4,"time_elapsed":61254,"internal_node_id":"0.0-3.0-1.0","responseType":"finish","participantID":"v4s03zwl9z3srn2lmajxko7xj2h5sz73","conditionNumber":1},{"rt":null,"stimulus":"\u003cblockquote\u003e\n  \u003cp\u003eHiccups.\u003c/p\u003e\n\u003c/blockquote\u003e","key_press":null,"trial_type":"html-keyboard-response","trial_index":5,"time_elapsed":71258,"internal_node_id":"0.0-3.0-2.0","responseType":"finish","participantID":"v4s03zwl9z3srn2lmajxko7xj2h5sz73","conditionNumber":1},{"rt":39661,"response":"62","stimulus":"Please rate how you felt once you understood the solution to the riddle.","trial_type":"html-slider-response","trial_index":6,"time_elapsed":110926,"internal_node_id":"0.0-4.0-0.0","responseType":"finish","participantID":"v4s03zwl9z3srn2lmajxko7xj2h5sz73","conditionNumber":1},{"rt":6543,"response":"83","stimulus":"An Aha! moment is when the solution suddenly dawns on you and everything is clear immediately. In a flash. As an example, imagine a light bulb that is switched on all at once in contrast to slowly turning up the lights. Did you experience an Aha! moment upon getting the solution to this puzzle? ","trial_type":"html-slider-response","trial_index":7,"time_elapsed":117473,"internal_node_id":"0.0-4.0-0.1","responseType":"finish","participantID":"v4s03zwl9z3srn2lmajxko7xj2h5sz73","conditionNumber":1}],"__v":0}
{"_id":{"$oid":"5c43b712a93b980004ddeb57"},"data":{"responseType":"start","participantID":"77swghph697ue0dxo7e53ouppcgh3gqm","conditionNumber":0},"__v":0}
{"_id":{"$oid":"5c43b720a93b980004ddeb58"},"data":{"responseType":"start","participantID":"9x2dmms0zgvkf5a239ocbsyzoeloypao","conditionNumber":1},"__v":0}
{"_id":{"$oid":"5c43b739a93b980004ddeb59"},"data":{"responseType":"start","participantID":"oor8betobnnhoxpp9h70pnvf74x578f9","conditionNumber":1},"__v":0}
{"_id":{"$oid":"5c43b762a93b980004ddeb5a"},"data":{"responseType":"start","participantID":"u64xyws2o2g2wt3f6ehb2ds5yymcb0lp","conditionNumber":0},"__v":0}
{"_id":{"$oid":"5c43b76ca93b980004ddeb5b"},"data":{"responseType":"start","participantID":"f40qhljbqgyftudyv29n3434g458esxh","conditionNumber":1},"__v":0}
{"_id":{"$oid":"5c43b77ea93b980004ddeb5c"},"data":{"responseType":"start","participantID":"j362s3q3x4fddx1sdqgol2rsx7cqdwm9","conditionNumber":0},"__v":0}
{"_id":{"$oid":"5c43b77ea93b980004ddeb5d"},"data":[{"rt":29190,"responses":"{\"Q0\":\" I consent to participate\"}","trial_type":"survey-multi-choice","trial_index":0,"time_elapsed":29199,"internal_node_id":"0.0-0.0","responseType":"finish","participantID":"oor8betobnnhoxpp9h70pnvf74x578f9","conditionNumber":1},{"trial_type":"call-function","trial_index":1,"time_elapsed":29209,"internal_node_id":"0.0-1.0","responseType":"finish","participantID":"oor8betobnnhoxpp9h70pnvf74x578f9","conditionNumber":1},{"view_history":"[{\"page_index\":0,\"viewing_time\":11008}]","rt":11009,"trial_type":"instructions","trial_index":2,"time_elapsed":40220,"internal_node_id":"0.0-2.0","responseType":"finish","participantID":"oor8betobnnhoxpp9h70pnvf74x578f9","conditionNumber":1},{"rt":null,"stimulus":"\u003cblockquote\u003e\n  \u003cp\u003eA man walks into a bar and asks the bartender for a glass of water. The bartender reaches under the bar and brings out a gun and aims it at the man. The man says thank you and leaves.\u003c/p\u003e\n  \u003cp\u003e\u003cem\u003eWhat happened?\u003c/em\u003e\u003c/p\u003e\n\u003c/blockquote\u003e","key_press":null,"trial_type":"html-keyboard-response","trial_index":3,"time_elapsed":60224,"internal_node_id":"0.0-3.0-0.0","responseType":"finish","participantID":"oor8betobnnhoxpp9h70pnvf74x578f9","conditionNumber":1},{"rt":null,"stimulus":"\u003cblockquote\u003e\n  \u003cp\u003eWe will now give you a \u003cstrong\u003ehint\u003c/strong\u003e that will help you get the answer to this puzzle.\u003c/p\u003e\n\u003c/blockquote\u003e","key_press":null,"trial_type":"html-keyboard-response","trial_index":4,"time_elapsed":65225,"internal_node_id":"0.0-3.0-1.0","responseType":"finish","participantID":"oor8betobnnhoxpp9h70pnvf74x578f9","conditionNumber":1},{"rt":null,"stimulus":"\u003cblockquote\u003e\n  \u003cp\u003eHiccups.\u003c/p\u003e\n\u003c/blockquote\u003e","key_press":null,"trial_type":"html-keyboard-response","trial_index":5,"time_elapsed":75226,"internal_node_id":"0.0-3.0-2.0","responseType":"finish","participantID":"oor8betobnnhoxpp9h70pnvf74x578f9","conditionNumber":1},{"rt":12941,"response":"87","stimulus":"An Aha! moment is when the solution suddenly dawns on you and everything is clear immediately. In a flash. As an example, imagine a light bulb that is switched on all at once in contrast to slowly turning up the lights. Did you experience an Aha! moment upon getting the solution to this puzzle? ","trial_type":"html-slider-response","trial_index":6,"time_elapsed":88170,"internal_node_id":"0.0-4.0-0.0","responseType":"finish","participantID":"oor8betobnnhoxpp9h70pnvf74x578f9","conditionNumber":1},{"rt":9659,"response":"85","stimulus":"Please rate how you felt once you understood the solution to the riddle.","trial_type":"html-slider-response","trial_index":7,"time_elapsed":97833,"internal_node_id":"0.0-4.0-0.1","responseType":"finish","participantID":"oor8betobnnhoxpp9h70pnvf74x578f9","conditionNumber":1}],"__v":0}
{"_id":{"$oid":"5c43b788a93b980004ddeb5e"},"data":[{"rt":8621,"responses":"{\"Q0\":\" I consent to participate\"}","trial_type":"survey-multi-choice","trial_index":0,"time_elapsed":8662,"internal_node_id":"0.0-0.0","responseType":"finish","participantID":"9x2dmms0zgvkf5a239ocbsyzoeloypao","conditionNumber":1},{"trial_type":"call-function","trial_index":1,"time_elapsed":8672,"internal_node_id":"0.0-1.0","responseType":"finish","participantID":"9x2dmms0zgvkf5a239ocbsyzoeloypao","conditionNumber":1},{"view_history":"[{\"page_index\":0,\"viewing_time\":23547}]","rt":23548,"trial_type":"instructions","trial_index":2,"time_elapsed":32220,"internal_node_id":"0.0-2.0","responseType":"finish","participantID":"9x2dmms0zgvkf5a239ocbsyzoeloypao","conditionNumber":1},{"rt":null,"stimulus":"\u003cblockquote\u003e\n  \u003cp\u003eA man walks into a bar and asks the bartender for a glass of water. The bartender reaches under the bar and brings out a gun and aims it at the man. The man says thank you and leaves.\u003c/p\u003e\n  \u003cp\u003e\u003cem\u003eWhat happened?\u003c/em\u003e\u003c/p\u003e\n\u003c/blockquote\u003e","key_press":null,"trial_type":"html-keyboard-response","trial_index":3,"time_elapsed":52221,"internal_node_id":"0.0-3.0-0.0","responseType":"finish","participantID":"9x2dmms0zgvkf5a239ocbsyzoeloypao","conditionNumber":1},{"rt":null,"stimulus":"\u003cblockquote\u003e\n  \u003cp\u003eWe will now give you a \u003cstrong\u003ehint\u003c/strong\u003e that will help you get the answer to this puzzle.\u003c/p\u003e\n\u003c/blockquote\u003e","key_press":null,"trial_type":"html-keyboard-response","trial_index":4,"time_elapsed":57563,"internal_node_id":"0.0-3.0-1.0","responseType":"finish","participantID":"9x2dmms0zgvkf5a239ocbsyzoeloypao","conditionNumber":1},{"rt":null,"stimulus":"\u003cblockquote\u003e\n  \u003cp\u003eHiccups.\u003c/p\u003e\n\u003c/blockquote\u003e","key_press":null,"trial_type":"html-keyboard-response","trial_index":5,"time_elapsed":67566,"internal_node_id":"0.0-3.0-2.0","responseType":"finish","participantID":"9x2dmms0zgvkf5a239ocbsyzoeloypao","conditionNumber":1},{"rt":31875,"response":"79","stimulus":"Please rate how you felt once you understood the solution to the riddle.","trial_type":"html-slider-response","trial_index":6,"time_elapsed":99445,"internal_node_id":"0.0-4.0-0.0","responseType":"finish","participantID":"9x2dmms0zgvkf5a239ocbsyzoeloypao","conditionNumber":1},{"rt":12418,"response":"74","stimulus":"An Aha! moment is when the solution suddenly dawns on you and everything is clear immediately. In a flash. As an example, imagine a light bulb that is switched on all at once in contrast to slowly turning up the lights. Did you experience an Aha! moment upon getting the solution to this puzzle? ","trial_type":"html-slider-response","trial_index":7,"time_elapsed":111866,"internal_node_id":"0.0-4.0-0.1","responseType":"finish","participantID":"9x2dmms0zgvkf5a239ocbsyzoeloypao","conditionNumber":1}],"__v":0}
{"_id":{"$oid":"5c43b79fa93b980004ddeb5f"},"data":{"responseType":"start","participantID":"jjzr00snjnb8mw7vmpch38traftk44xg","conditionNumber":0},"__v":0}
{"_id":{"$oid":"5c43b7a8a93b980004ddeb60"},"data":[{"rt":22777,"responses":"{\"Q0\":\" I consent to participate\"}","trial_type":"survey-multi-choice","trial_index":0,"time_elapsed":22781,"internal_node_id":"0.0-0.0","responseType":"finish","participantID":"f40qhljbqgyftudyv29n3434g458esxh","conditionNumber":1},{"trial_type":"call-function","trial_index":1,"time_elapsed":22784,"internal_node_id":"0.0-1.0","responseType":"finish","participantID":"f40qhljbqgyftudyv29n3434g458esxh","conditionNumber":1},{"view_history":"[{\"page_index\":0,\"viewing_time\":7732}]","rt":7733,"trial_type":"instructions","trial_index":2,"time_elapsed":30517,"internal_node_id":"0.0-2.0","responseType":"finish","participantID":"f40qhljbqgyftudyv29n3434g458esxh","conditionNumber":1},{"rt":null,"stimulus":"\u003cblockquote\u003e\n  \u003cp\u003eA man walks into a bar and asks the bartender for a glass of water. The bartender reaches under the bar and brings out a gun and aims it at the man. The man says thank you and leaves.\u003c/p\u003e\n  \u003cp\u003e\u003cem\u003eWhat happened?\u003c/em\u003e\u003c/p\u003e\n\u003c/blockquote\u003e","key_press":null,"trial_type":"html-keyboard-response","trial_index":3,"time_elapsed":50519,"internal_node_id":"0.0-3.0-0.0","responseType":"finish","participantID":"f40qhljbqgyftudyv29n3434g458esxh","conditionNumber":1},{"rt":null,"stimulus":"\u003cblockquote\u003e\n  \u003cp\u003eWe will now give you a \u003cstrong\u003ehint\u003c/strong\u003e that will help you get the answer to this puzzle.\u003c/p\u003e\n\u003c/blockquote\u003e","key_press":null,"trial_type":"html-keyboard-response","trial_index":4,"time_elapsed":55520,"internal_node_id":"0.0-3.0-1.0","responseType":"finish","participantID":"f40qhljbqgyftudyv29n3434g458esxh","conditionNumber":1},{"rt":null,"stimulus":"\u003cblockquote\u003e\n  \u003cp\u003eHiccups.\u003c/p\u003e\n\u003c/blockquote\u003e","key_press":null,"trial_type":"html-keyboard-response","trial_index":5,"time_elapsed":65522,"internal_node_id":"0.0-3.0-2.0","responseType":"finish","participantID":"f40qhljbqgyftudyv29n3434g458esxh","conditionNumber":1},{"rt":10568,"response":"100","stimulus":"An Aha! moment is when the solution suddenly dawns on you and everything is clear immediately. In a flash. As an example, imagine a light bulb that is switched on all at once in contrast to slowly turning up the lights. Did you experience an Aha! moment upon getting the solution to this puzzle? ","trial_type":"html-slider-response","trial_index":6,"time_elapsed":76093,"internal_node_id":"0.0-4.0-0.0","responseType":"finish","participantID":"f40qhljbqgyftudyv29n3434g458esxh","conditionNumber":1},{"rt":6804,"response":"100","stimulus":"Please rate how you felt once you understood the solution to the riddle.","trial_type":"html-slider-response","trial_index":7,"time_elapsed":82898,"internal_node_id":"0.0-4.0-0.1","responseType":"finish","participantID":"f40qhljbqgyftudyv29n3434g458esxh","conditionNumber":1}],"__v":0}
{"_id":{"$oid":"5c43b7b7a93b980004ddeb61"},"data":{"responseType":"start","participantID":"0gfrwx21tm9d167ut5gaubzwpjy346cf","conditionNumber":1},"__v":0}
{"_id":{"$oid":"5c43b7c4a93b980004ddeb62"},"data":[{"rt":7444,"responses":"{\"Q0\":\" I consent to participate\"}","trial_type":"survey-multi-choice","trial_index":0,"time_elapsed":7455,"internal_node_id":"0.0-0.0","responseType":"finish","participantID":"j362s3q3x4fddx1sdqgol2rsx7cqdwm9","conditionNumber":0},{"trial_type":"call-function","trial_index":1,"time_elapsed":7469,"internal_node_id":"0.0-1.0","responseType":"finish","participantID":"j362s3q3x4fddx1sdqgol2rsx7cqdwm9","conditionNumber":0},{"view_history":"[{\"page_index\":0,\"viewing_time\":13658}]","rt":13659,"trial_type":"instructions","trial_index":2,"time_elapsed":21129,"internal_node_id":"0.0-2.0","responseType":"finish","participantID":"j362s3q3x4fddx1sdqgol2rsx7cqdwm9","conditionNumber":0},{"rt":null,"stimulus":"\u003cblockquote\u003e\n  \u003cp\u003eA man walks into a bar and asks the bartender for a glass of water. The bartender reaches under the bar and brings out a gun and aims it at the man. The man says thank you and leaves.\u003c/p\u003e\n  \u003cp\u003e\u003cem\u003eWhat happened?\u003c/em\u003e\u003c/p\u003e\n\u003c/blockquote\u003e","key_press":null,"trial_type":"html-keyboard-response","trial_index":3,"time_elapsed":46134,"internal_node_id":"0.0-3.0-0.0","responseType":"finish","participantID":"j362s3q3x4fddx1sdqgol2rsx7cqdwm9","conditionNumber":0},{"rt":null,"stimulus":"\u003cblockquote\u003e\n  \u003cp\u003eHiccups.\u003c/p\u003e\n\u003c/blockquote\u003e","key_press":null,"trial_type":"html-keyboard-response","trial_index":4,"time_elapsed":56139,"internal_node_id":"0.0-3.0-1.0","responseType":"finish","participantID":"j362s3q3x4fddx1sdqgol2rsx7cqdwm9","conditionNumber":0},{"rt":6425,"response":"84","stimulus":"Please rate how you felt once you understood the solution to the riddle.","trial_type":"html-slider-response","trial_index":5,"time_elapsed":62571,"internal_node_id":"0.0-4.0-0.0","responseType":"finish","participantID":"j362s3q3x4fddx1sdqgol2rsx7cqdwm9","conditionNumber":0},{"rt":15093,"response":"87","stimulus":"An Aha! moment is when the solution suddenly dawns on you and everything is clear immediately. In a flash. As an example, imagine a light bulb that is switched on all at once in contrast to slowly turning up the lights. Did you experience an Aha! moment upon getting the solution to this puzzle? ","trial_type":"html-slider-response","trial_index":6,"time_elapsed":77668,"internal_node_id":"0.0-4.0-0.1","responseType":"finish","participantID":"j362s3q3x4fddx1sdqgol2rsx7cqdwm9","conditionNumber":0}],"__v":0}
{"_id":{"$oid":"5c43b7d1a93b980004ddeb63"},"data":[{"rt":3539,"responses":"{\"Q0\":\" I consent to participate\"}","trial_type":"survey-multi-choice","trial_index":0,"time_elapsed":3565,"internal_node_id":"0.0-0.0","responseType":"finish","participantID":"jjzr00snjnb8mw7vmpch38traftk44xg","conditionNumber":0},{"trial_type":"call-function","trial_index":1,"time_elapsed":3571,"internal_node_id":"0.0-1.0","responseType":"finish","participantID":"jjzr00snjnb8mw7vmpch38traftk44xg","conditionNumber":0},{"view_history":"[{\"page_index\":0,\"viewing_time\":3050}]","rt":3050,"trial_type":"instructions","trial_index":2,"time_elapsed":6621,"internal_node_id":"0.0-2.0","responseType":"finish","participantID":"jjzr00snjnb8mw7vmpch38traftk44xg","conditionNumber":0},{"rt":null,"stimulus":"\u003cblockquote\u003e\n  \u003cp\u003eA man walks into a bar and asks the bartender for a glass of water. The bartender reaches under the bar and brings out a gun and aims it at the man. The man says thank you and leaves.\u003c/p\u003e\n  \u003cp\u003e\u003cem\u003eWhat happened?\u003c/em\u003e\u003c/p\u003e\n\u003c/blockquote\u003e","key_press":null,"trial_type":"html-keyboard-response","trial_index":3,"time_elapsed":31624,"internal_node_id":"0.0-3.0-0.0","responseType":"finish","participantID":"jjzr00snjnb8mw7vmpch38traftk44xg","conditionNumber":0},{"rt":null,"stimulus":"\u003cblockquote\u003e\n  \u003cp\u003eHiccups.\u003c/p\u003e\n\u003c/blockquote\u003e","key_press":null,"trial_type":"html-keyboard-response","trial_index":4,"time_elapsed":41626,"internal_node_id":"0.0-3.0-1.0","responseType":"finish","participantID":"jjzr00snjnb8mw7vmpch38traftk44xg","conditionNumber":0},{"rt":7560,"response":"87","stimulus":"An Aha! moment is when the solution suddenly dawns on you and everything is clear immediately. In a flash. As an example, imagine a light bulb that is switched on all at once in contrast to slowly turning up the lights. Did you experience an Aha! moment upon getting the solution to this puzzle? ","trial_type":"html-slider-response","trial_index":5,"time_elapsed":49189,"internal_node_id":"0.0-4.0-0.0","responseType":"finish","participantID":"jjzr00snjnb8mw7vmpch38traftk44xg","conditionNumber":0},{"rt":4359,"response":"69","stimulus":"Please rate how you felt once you understood the solution to the riddle.","trial_type":"html-slider-response","trial_index":6,"time_elapsed":53549,"internal_node_id":"0.0-4.0-0.1","responseType":"finish","participantID":"jjzr00snjnb8mw7vmpch38traftk44xg","conditionNumber":0}],"__v":0}
{"_id":{"$oid":"5c43b7f7a93b980004ddeb64"},"data":{"responseType":"start","participantID":"c46rgybfx6l1q1psmfmxdxdpjmuwjn4x","conditionNumber":0},"__v":0}
{"_id":{"$oid":"5c43b7f9a93b980004ddeb65"},"data":{"responseType":"start","participantID":"j8ze8o7ootu9ar57xbphaslafmftws52","conditionNumber":1},"__v":0}
{"_id":{"$oid":"5c43b810a93b980004ddeb66"},"data":[{"rt":7026,"responses":"{\"Q0\":\" I consent to participate\"}","trial_type":"survey-multi-choice","trial_index":0,"time_elapsed":7034,"internal_node_id":"0.0-0.0","responseType":"finish","participantID":"0gfrwx21tm9d167ut5gaubzwpjy346cf","conditionNumber":1},{"trial_type":"call-function","trial_index":1,"time_elapsed":7039,"internal_node_id":"0.0-1.0","responseType":"finish","participantID":"0gfrwx21tm9d167ut5gaubzwpjy346cf","conditionNumber":1},{"view_history":"[{\"page_index\":0,\"viewing_time\":9726}]","rt":9727,"trial_type":"instructions","trial_index":2,"time_elapsed":16767,"internal_node_id":"0.0-2.0","responseType":"finish","participantID":"0gfrwx21tm9d167ut5gaubzwpjy346cf","conditionNumber":1},{"rt":null,"stimulus":"\u003cblockquote\u003e\n  \u003cp\u003eA man walks into a bar and asks the bartender for a glass of water. The bartender reaches under the bar and brings out a gun and aims it at the man. The man says thank you and leaves.\u003c/p\u003e\n  \u003cp\u003e\u003cem\u003eWhat happened?\u003c/em\u003e\u003c/p\u003e\n\u003c/blockquote\u003e","key_press":null,"trial_type":"html-keyboard-response","trial_index":3,"time_elapsed":36772,"internal_node_id":"0.0-3.0-0.0","responseType":"finish","participantID":"0gfrwx21tm9d167ut5gaubzwpjy346cf","conditionNumber":1},{"rt":null,"stimulus":"\u003cblockquote\u003e\n  \u003cp\u003eWe will now give you a \u003cstrong\u003ehint\u003c/strong\u003e that will help you get the answer to this puzzle.\u003c/p\u003e\n\u003c/blockquote\u003e","key_press":null,"trial_type":"html-keyboard-response","trial_index":4,"time_elapsed":41775,"internal_node_id":"0.0-3.0-1.0","responseType":"finish","participantID":"0gfrwx21tm9d167ut5gaubzwpjy346cf","conditionNumber":1},{"rt":null,"stimulus":"\u003cblockquote\u003e\n  \u003cp\u003eHiccups.\u003c/p\u003e\n\u003c/blockquote\u003e","key_press":null,"trial_type":"html-keyboard-response","trial_index":5,"time_elapsed":51779,"internal_node_id":"0.0-3.0-2.0","responseType":"finish","participantID":"0gfrwx21tm9d167ut5gaubzwpjy346cf","conditionNumber":1},{"rt":33824,"response":"48","stimulus":"Please rate how you felt once you understood the solution to the riddle.","trial_type":"html-slider-response","trial_index":6,"time_elapsed":85607,"internal_node_id":"0.0-4.0-0.0","responseType":"finish","participantID":"0gfrwx21tm9d167ut5gaubzwpjy346cf","conditionNumber":1},{"rt":11181,"response":"100","stimulus":"An Aha! moment is when the solution suddenly dawns on you and everything is clear immediately. In a flash. As an example, imagine a light bulb that is switched on all at once in contrast to slowly turning up the lights. Did you experience an Aha! moment upon getting the solution to this puzzle? ","trial_type":"html-slider-response","trial_index":7,"time_elapsed":96790,"internal_node_id":"0.0-4.0-0.1","responseType":"finish","participantID":"0gfrwx21tm9d167ut5gaubzwpjy346cf","conditionNumber":1}],"__v":0}
{"_id":{"$oid":"5c43b827a93b980004ddeb67"},"data":{"responseType":"start","participantID":"mgkg0pr4hxa39mm95ok7k4mytpdtlft7","conditionNumber":1},"__v":0}
{"_id":{"$oid":"5c43b839a93b980004ddeb68"},"data":[{"rt":5017,"responses":"{\"Q0\":\" I consent to participate\"}","trial_type":"survey-multi-choice","trial_index":0,"time_elapsed":5100,"internal_node_id":"0.0-0.0","responseType":"finish","participantID":"j8ze8o7ootu9ar57xbphaslafmftws52","conditionNumber":1},{"trial_type":"call-function","trial_index":1,"time_elapsed":5119,"internal_node_id":"0.0-1.0","responseType":"finish","participantID":"j8ze8o7ootu9ar57xbphaslafmftws52","conditionNumber":1},{"view_history":"[{\"page_index\":0,\"viewing_time\":12929}]","rt":12929,"trial_type":"instructions","trial_index":2,"time_elapsed":18048,"internal_node_id":"0.0-2.0","responseType":"finish","participantID":"j8ze8o7ootu9ar57xbphaslafmftws52","conditionNumber":1},{"rt":null,"stimulus":"\u003cblockquote\u003e\n  \u003cp\u003eA man walks into a bar and asks the bartender for a glass of water. The bartender reaches under the bar and brings out a gun and aims it at the man. The man says thank you and leaves.\u003c/p\u003e\n  \u003cp\u003e\u003cem\u003eWhat happened?\u003c/em\u003e\u003c/p\u003e\n\u003c/blockquote\u003e","key_press":null,"trial_type":"html-keyboard-response","trial_index":3,"time_elapsed":38051,"internal_node_id":"0.0-3.0-0.0","responseType":"finish","participantID":"j8ze8o7ootu9ar57xbphaslafmftws52","conditionNumber":1},{"rt":null,"stimulus":"\u003cblockquote\u003e\n  \u003cp\u003eWe will now give you a \u003cstrong\u003ehint\u003c/strong\u003e that will help you get the answer to this puzzle.\u003c/p\u003e\n\u003c/blockquote\u003e","key_press":null,"trial_type":"html-keyboard-response","trial_index":4,"time_elapsed":43052,"internal_node_id":"0.0-3.0-1.0","responseType":"finish","participantID":"j8ze8o7ootu9ar57xbphaslafmftws52","conditionNumber":1},{"rt":null,"stimulus":"\u003cblockquote\u003e\n  \u003cp\u003eHiccups.\u003c/p\u003e\n\u003c/blockquote\u003e","key_press":null,"trial_type":"html-keyboard-response","trial_index":5,"time_elapsed":53055,"internal_node_id":"0.0-3.0-2.0","responseType":"finish","participantID":"j8ze8o7ootu9ar57xbphaslafmftws52","conditionNumber":1},{"rt":5877,"response":"36","stimulus":"Please rate how you felt once you understood the solution to the riddle.","trial_type":"html-slider-response","trial_index":6,"time_elapsed":58933,"internal_node_id":"0.0-4.0-0.0","responseType":"finish","participantID":"j8ze8o7ootu9ar57xbphaslafmftws52","conditionNumber":1},{"rt":9352,"response":"64","stimulus":"An Aha! moment is when the solution suddenly dawns on you and everything is clear immediately. In a flash. As an example, imagine a light bulb that is switched on all at once in contrast to slowly turning up the lights. Did you experience an Aha! moment upon getting the solution to this puzzle? ","trial_type":"html-slider-response","trial_index":7,"time_elapsed":68287,"internal_node_id":"0.0-4.0-0.1","responseType":"finish","participantID":"j8ze8o7ootu9ar57xbphaslafmftws52","conditionNumber":1}],"__v":0}
{"_id":{"$oid":"5c43b83ea93b980004ddeb69"},"data":[{"rt":7359,"responses":"{\"Q0\":\" I consent to participate\"}","trial_type":"survey-multi-choice","trial_index":0,"time_elapsed":7365,"internal_node_id":"0.0-0.0","responseType":"finish","participantID":"c46rgybfx6l1q1psmfmxdxdpjmuwjn4x","conditionNumber":0},{"trial_type":"call-function","trial_index":1,"time_elapsed":7369,"internal_node_id":"0.0-1.0","responseType":"finish","participantID":"c46rgybfx6l1q1psmfmxdxdpjmuwjn4x","conditionNumber":0},{"view_history":"[{\"page_index\":0,\"viewing_time\":7475}]","rt":7475,"trial_type":"instructions","trial_index":2,"time_elapsed":14845,"internal_node_id":"0.0-2.0","responseType":"finish","participantID":"c46rgybfx6l1q1psmfmxdxdpjmuwjn4x","conditionNumber":0},{"rt":null,"stimulus":"\u003cblockquote\u003e\n  \u003cp\u003eA man walks into a bar and asks the bartender for a glass of water. The bartender reaches under the bar and brings out a gun and aims it at the man. The man says thank you and leaves.\u003c/p\u003e\n  \u003cp\u003e\u003cem\u003eWhat happened?\u003c/em\u003e\u003c/p\u003e\n\u003c/blockquote\u003e","key_press":null,"trial_type":"html-keyboard-response","trial_index":3,"time_elapsed":39847,"internal_node_id":"0.0-3.0-0.0","responseType":"finish","participantID":"c46rgybfx6l1q1psmfmxdxdpjmuwjn4x","conditionNumber":0},{"rt":null,"stimulus":"\u003cblockquote\u003e\n  \u003cp\u003eHiccups.\u003c/p\u003e\n\u003c/blockquote\u003e","key_press":null,"trial_type":"html-keyboard-response","trial_index":4,"time_elapsed":49849,"internal_node_id":"0.0-3.0-1.0","responseType":"finish","participantID":"c46rgybfx6l1q1psmfmxdxdpjmuwjn4x","conditionNumber":0},{"rt":16916,"response":"66","stimulus":"Please rate how you felt once you understood the solution to the riddle.","trial_type":"html-slider-response","trial_index":5,"time_elapsed":66768,"internal_node_id":"0.0-4.0-0.0","responseType":"finish","participantID":"c46rgybfx6l1q1psmfmxdxdpjmuwjn4x","conditionNumber":0},{"rt":12051,"response":"89","stimulus":"An Aha! moment is when the solution suddenly dawns on you and everything is clear immediately. In a flash. As an example, imagine a light bulb that is switched on all at once in contrast to slowly turning up the lights. Did you experience an Aha! moment upon getting the solution to this puzzle? ","trial_type":"html-slider-response","trial_index":6,"time_elapsed":78820,"internal_node_id":"0.0-4.0-0.1","responseType":"finish","participantID":"c46rgybfx6l1q1psmfmxdxdpjmuwjn4x","conditionNumber":0}],"__v":0}
{"_id":{"$oid":"5c43b879a93b980004ddeb6a"},"data":[{"rt":4224,"responses":"{\"Q0\":\" I consent to participate\"}","trial_type":"survey-multi-choice","trial_index":0,"time_elapsed":4255,"internal_node_id":"0.0-0.0","responseType":"finish","participantID":"mgkg0pr4hxa39mm95ok7k4mytpdtlft7","conditionNumber":1},{"trial_type":"call-function","trial_index":1,"time_elapsed":4262,"internal_node_id":"0.0-1.0","responseType":"finish","participantID":"mgkg0pr4hxa39mm95ok7k4mytpdtlft7","conditionNumber":1},{"view_history":"[{\"page_index\":0,\"viewing_time\":13066}]","rt":13067,"trial_type":"instructions","trial_index":2,"time_elapsed":17329,"internal_node_id":"0.0-2.0","responseType":"finish","participantID":"mgkg0pr4hxa39mm95ok7k4mytpdtlft7","conditionNumber":1},{"rt":null,"stimulus":"\u003cblockquote\u003e\n  \u003cp\u003eA man walks into a bar and asks the bartender for a glass of water. The bartender reaches under the bar and brings out a gun and aims it at the man. The man says thank you and leaves.\u003c/p\u003e\n  \u003cp\u003e\u003cem\u003eWhat happened?\u003c/em\u003e\u003c/p\u003e\n\u003c/blockquote\u003e","key_press":null,"trial_type":"html-keyboard-response","trial_index":3,"time_elapsed":37331,"internal_node_id":"0.0-3.0-0.0","responseType":"finish","participantID":"mgkg0pr4hxa39mm95ok7k4mytpdtlft7","conditionNumber":1},{"rt":null,"stimulus":"\u003cblockquote\u003e\n  \u003cp\u003eWe will now give you a \u003cstrong\u003ehint\u003c/strong\u003e that will help you get the answer to this puzzle.\u003c/p\u003e\n\u003c/blockquote\u003e","key_press":null,"trial_type":"html-keyboard-response","trial_index":4,"time_elapsed":42332,"internal_node_id":"0.0-3.0-1.0","responseType":"finish","participantID":"mgkg0pr4hxa39mm95ok7k4mytpdtlft7","conditionNumber":1},{"rt":null,"stimulus":"\u003cblockquote\u003e\n  \u003cp\u003eHiccups.\u003c/p\u003e\n\u003c/blockquote\u003e","key_press":null,"trial_type":"html-keyboard-response","trial_index":5,"time_elapsed":52333,"internal_node_id":"0.0-3.0-2.0","responseType":"finish","participantID":"mgkg0pr4hxa39mm95ok7k4mytpdtlft7","conditionNumber":1},{"rt":28385,"response":"66","stimulus":"An Aha! moment is when the solution suddenly dawns on you and everything is clear immediately. In a flash. As an example, imagine a light bulb that is switched on all at once in contrast to slowly turning up the lights. Did you experience an Aha! moment upon getting the solution to this puzzle? ","trial_type":"html-slider-response","trial_index":6,"time_elapsed":80721,"internal_node_id":"0.0-4.0-0.0","responseType":"finish","participantID":"mgkg0pr4hxa39mm95ok7k4mytpdtlft7","conditionNumber":1},{"rt":5393,"response":"70","stimulus":"Please rate how you felt once you understood the solution to the riddle.","trial_type":"html-slider-response","trial_index":7,"time_elapsed":86115,"internal_node_id":"0.0-4.0-0.1","responseType":"finish","participantID":"mgkg0pr4hxa39mm95ok7k4mytpdtlft7","conditionNumber":1}],"__v":0}
{"_id":{"$oid":"5c43b957a93b980004ddeb6b"},"data":{"responseType":"start","participantID":"9yrq7esa824l3rl4hd5mtbr6a8qdrpsz","conditionNumber":0},"__v":0}
{"_id":{"$oid":"5c43b9a5a93b980004ddeb6c"},"data":{"responseType":"start","participantID":"3fkn9ux126qmecofcs11a71lzxn0y9ja","conditionNumber":0},"__v":0}
{"_id":{"$oid":"5c43b9e2a93b980004ddeb6d"},"data":[{"rt":3180,"responses":"{\"Q0\":\" I consent to participate\"}","trial_type":"survey-multi-choice","trial_index":0,"time_elapsed":3245,"internal_node_id":"0.0-0.0","responseType":"finish","participantID":"3fkn9ux126qmecofcs11a71lzxn0y9ja","conditionNumber":0},{"trial_type":"call-function","trial_index":1,"time_elapsed":3263,"internal_node_id":"0.0-1.0","responseType":"finish","participantID":"3fkn9ux126qmecofcs11a71lzxn0y9ja","conditionNumber":0},{"view_history":"[{\"page_index\":0,\"viewing_time\":4065}]","rt":4066,"trial_type":"instructions","trial_index":2,"time_elapsed":7330,"internal_node_id":"0.0-2.0","responseType":"finish","participantID":"3fkn9ux126qmecofcs11a71lzxn0y9ja","conditionNumber":0},{"rt":null,"stimulus":"\u003cblockquote\u003e\n  \u003cp\u003eA man walks into a bar and asks the bartender for a glass of water. The bartender reaches under the bar and brings out a gun and aims it at the man. The man says thank you and leaves.\u003c/p\u003e\n  \u003cp\u003e\u003cem\u003eWhat happened?\u003c/em\u003e\u003c/p\u003e\n\u003c/blockquote\u003e","key_press":null,"trial_type":"html-keyboard-response","trial_index":3,"time_elapsed":32461,"internal_node_id":"0.0-3.0-0.0","responseType":"finish","participantID":"3fkn9ux126qmecofcs11a71lzxn0y9ja","conditionNumber":0},{"rt":null,"stimulus":"\u003cblockquote\u003e\n  \u003cp\u003eHiccups.\u003c/p\u003e\n\u003c/blockquote\u003e","key_press":null,"trial_type":"html-keyboard-response","trial_index":4,"time_elapsed":42463,"internal_node_id":"0.0-3.0-1.0","responseType":"finish","participantID":"3fkn9ux126qmecofcs11a71lzxn0y9ja","conditionNumber":0},{"rt":10767,"response":"58","stimulus":"Please rate how you felt once you understood the solution to the riddle.","trial_type":"html-slider-response","trial_index":5,"time_elapsed":53237,"internal_node_id":"0.0-4.0-0.0","responseType":"finish","participantID":"3fkn9ux126qmecofcs11a71lzxn0y9ja","conditionNumber":0},{"rt":9892,"response":"55","stimulus":"An Aha! moment is when the solution suddenly dawns on you and everything is clear immediately. In a flash. As an example, imagine a light bulb that is switched on all at once in contrast to slowly turning up the lights. Did you experience an Aha! moment upon getting the solution to this puzzle? ","trial_type":"html-slider-response","trial_index":6,"time_elapsed":63132,"internal_node_id":"0.0-4.0-0.1","responseType":"finish","participantID":"3fkn9ux126qmecofcs11a71lzxn0y9ja","conditionNumber":0}],"__v":0}
{"_id":{"$oid":"5c43ba05a93b980004ddeb6e"},"data":{"responseType":"start","participantID":"r3q34tum10ll9dka8a7vs8rb0l7eruf4","conditionNumber":0},"__v":0}
{"_id":{"$oid":"5c43ba4ca93b980004ddeb6f"},"data":[{"rt":9256,"responses":"{\"Q0\":\" I consent to participate\"}","trial_type":"survey-multi-choice","trial_index":0,"time_elapsed":9274,"internal_node_id":"0.0-0.0","responseType":"finish","participantID":"r3q34tum10ll9dka8a7vs8rb0l7eruf4","conditionNumber":0},{"trial_type":"call-function","trial_index":1,"time_elapsed":9281,"internal_node_id":"0.0-1.0","responseType":"finish","participantID":"r3q34tum10ll9dka8a7vs8rb0l7eruf4","conditionNumber":0},{"view_history":"[{\"page_index\":0,\"viewing_time\":21863}]","rt":21864,"trial_type":"instructions","trial_index":2,"time_elapsed":31146,"internal_node_id":"0.0-2.0","responseType":"finish","participantID":"r3q34tum10ll9dka8a7vs8rb0l7eruf4","conditionNumber":0},{"rt":null,"stimulus":"\u003cblockquote\u003e\n  \u003cp\u003eA man walks into a bar and asks the bartender for a glass of water. The bartender reaches under the bar and brings out a gun and aims it at the man. The man says thank you and leaves.\u003c/p\u003e\n  \u003cp\u003e\u003cem\u003eWhat happened?\u003c/em\u003e\u003c/p\u003e\n\u003c/blockquote\u003e","key_press":null,"trial_type":"html-keyboard-response","trial_index":3,"time_elapsed":56880,"internal_node_id":"0.0-3.0-0.0","responseType":"finish","participantID":"r3q34tum10ll9dka8a7vs8rb0l7eruf4","conditionNumber":0},{"rt":null,"stimulus":"\u003cblockquote\u003e\n  \u003cp\u003eHiccups.\u003c/p\u003e\n\u003c/blockquote\u003e","key_press":null,"trial_type":"html-keyboard-response","trial_index":4,"time_elapsed":66882,"internal_node_id":"0.0-3.0-1.0","responseType":"finish","participantID":"r3q34tum10ll9dka8a7vs8rb0l7eruf4","conditionNumber":0},{"rt":7877,"response":"12","stimulus":"An Aha! moment is when the solution suddenly dawns on you and everything is clear immediately. In a flash. As an example, imagine a light bulb that is switched on all at once in contrast to slowly turning up the lights. Did you experience an Aha! moment upon getting the solution to this puzzle? ","trial_type":"html-slider-response","trial_index":5,"time_elapsed":74762,"internal_node_id":"0.0-4.0-0.0","responseType":"finish","participantID":"r3q34tum10ll9dka8a7vs8rb0l7eruf4","conditionNumber":0},{"rt":4576,"response":"74","stimulus":"Please rate how you felt once you understood the solution to the riddle.","trial_type":"html-slider-response","trial_index":6,"time_elapsed":79340,"internal_node_id":"0.0-4.0-0.1","responseType":"finish","participantID":"r3q34tum10ll9dka8a7vs8rb0l7eruf4","conditionNumber":0}],"__v":0}
{"_id":{"$oid":"5c43baf8a93b980004ddeb70"},"data":{"responseType":"start","participantID":"mwf49awhhxpadq74n0f8pbgcd4mo6w3o","conditionNumber":1},"__v":0}
{"_id":{"$oid":"5c43bb08a93b980004ddeb71"},"data":[{"rt":4250,"responses":"{\"Q0\":\" I consent to participate\"}","trial_type":"survey-multi-choice","trial_index":0,"time_elapsed":4254,"internal_node_id":"0.0-0.0","responseType":"finish","participantID":"77swghph697ue0dxo7e53ouppcgh3gqm","conditionNumber":0},{"trial_type":"call-function","trial_index":1,"time_elapsed":4258,"internal_node_id":"0.0-1.0","responseType":"finish","participantID":"77swghph697ue0dxo7e53ouppcgh3gqm","conditionNumber":0},{"view_history":"[{\"page_index\":0,\"viewing_time\":963895}]","rt":963896,"trial_type":"instructions","trial_index":2,"time_elapsed":968154,"internal_node_id":"0.0-2.0","responseType":"finish","participantID":"77swghph697ue0dxo7e53ouppcgh3gqm","conditionNumber":0},{"rt":null,"stimulus":"\u003cblockquote\u003e\n  \u003cp\u003eA man walks into a bar and asks the bartender for a glass of water. The bartender reaches under the bar and brings out a gun and aims it at the man. The man says thank you and leaves.\u003c/p\u003e\n  \u003cp\u003e\u003cem\u003eWhat happened?\u003c/em\u003e\u003c/p\u003e\n\u003c/blockquote\u003e","key_press":null,"trial_type":"html-keyboard-response","trial_index":3,"time_elapsed":993158,"internal_node_id":"0.0-3.0-0.0","responseType":"finish","participantID":"77swghph697ue0dxo7e53ouppcgh3gqm","conditionNumber":0},{"rt":null,"stimulus":"\u003cblockquote\u003e\n  \u003cp\u003eHiccups.\u003c/p\u003e\n\u003c/blockquote\u003e","key_press":null,"trial_type":"html-keyboard-response","trial_index":4,"time_elapsed":1003161,"internal_node_id":"0.0-3.0-1.0","responseType":"finish","participantID":"77swghph697ue0dxo7e53ouppcgh3gqm","conditionNumber":0},{"rt":6741,"response":"97","stimulus":"Please rate how you felt once you understood the solution to the riddle.","trial_type":"html-slider-response","trial_index":5,"time_elapsed":1009907,"internal_node_id":"0.0-4.0-0.0","responseType":"finish","participantID":"77swghph697ue0dxo7e53ouppcgh3gqm","conditionNumber":0},{"rt":8505,"response":"98","stimulus":"An Aha! moment is when the solution suddenly dawns on you and everything is clear immediately. In a flash. As an example, imagine a light bulb that is switched on all at once in contrast to slowly turning up the lights. Did you experience an Aha! moment upon getting the solution to this puzzle? ","trial_type":"html-slider-response","trial_index":6,"time_elapsed":1018418,"internal_node_id":"0.0-4.0-0.1","responseType":"finish","participantID":"77swghph697ue0dxo7e53ouppcgh3gqm","conditionNumber":0}],"__v":0}
{"_id":{"$oid":"5c43bb36a93b980004ddeb72"},"data":{"responseType":"start","participantID":"90ga63jvb3pooq5vwn1e1bmqdb3l3rjb","conditionNumber":0},"__v":0}
{"_id":{"$oid":"5c43bb46a93b980004ddeb73"},"data":[{"rt":6649,"responses":"{\"Q0\":\" I consent to participate\"}","trial_type":"survey-multi-choice","trial_index":0,"time_elapsed":6717,"internal_node_id":"0.0-0.0","responseType":"finish","participantID":"mwf49awhhxpadq74n0f8pbgcd4mo6w3o","conditionNumber":1},{"trial_type":"call-function","trial_index":1,"time_elapsed":6754,"internal_node_id":"0.0-1.0","responseType":"finish","participantID":"mwf49awhhxpadq74n0f8pbgcd4mo6w3o","conditionNumber":1},{"view_history":"[{\"page_index\":0,\"viewing_time\":10552}]","rt":10553,"trial_type":"instructions","trial_index":2,"time_elapsed":17308,"internal_node_id":"0.0-2.0","responseType":"finish","participantID":"mwf49awhhxpadq74n0f8pbgcd4mo6w3o","conditionNumber":1},{"rt":null,"stimulus":"\u003cblockquote\u003e\n  \u003cp\u003eA man walks into a bar and asks the bartender for a glass of water. The bartender reaches under the bar and brings out a gun and aims it at the man. The man says thank you and leaves.\u003c/p\u003e\n  \u003cp\u003e\u003cem\u003eWhat happened?\u003c/em\u003e\u003c/p\u003e\n\u003c/blockquote\u003e","key_press":null,"trial_type":"html-keyboard-response","trial_index":3,"time_elapsed":37310,"internal_node_id":"0.0-3.0-0.0","responseType":"finish","participantID":"mwf49awhhxpadq74n0f8pbgcd4mo6w3o","conditionNumber":1},{"rt":null,"stimulus":"\u003cblockquote\u003e\n  \u003cp\u003eWe will now give you a \u003cstrong\u003ehint\u003c/strong\u003e that will help you get the answer to this puzzle.\u003c/p\u003e\n\u003c/blockquote\u003e","key_press":null,"trial_type":"html-keyboard-response","trial_index":4,"time_elapsed":42310,"internal_node_id":"0.0-3.0-1.0","responseType":"finish","participantID":"mwf49awhhxpadq74n0f8pbgcd4mo6w3o","conditionNumber":1},{"rt":null,"stimulus":"\u003cblockquote\u003e\n  \u003cp\u003eHiccups.\u003c/p\u003e\n\u003c/blockquote\u003e","key_press":null,"trial_type":"html-keyboard-response","trial_index":5,"time_elapsed":52312,"internal_node_id":"0.0-3.0-2.0","responseType":"finish","participantID":"mwf49awhhxpadq74n0f8pbgcd4mo6w3o","conditionNumber":1},{"rt":14397,"response":"75","stimulus":"Please rate how you felt once you understood the solution to the riddle.","trial_type":"html-slider-response","trial_index":6,"time_elapsed":66711,"internal_node_id":"0.0-4.0-0.0","responseType":"finish","participantID":"mwf49awhhxpadq74n0f8pbgcd4mo6w3o","conditionNumber":1},{"rt":16920,"response":"80","stimulus":"An Aha! moment is when the solution suddenly dawns on you and everything is clear immediately. In a flash. As an example, imagine a light bulb that is switched on all at once in contrast to slowly turning up the lights. Did you experience an Aha! moment upon getting the solution to this puzzle? ","trial_type":"html-slider-response","trial_index":7,"time_elapsed":83633,"internal_node_id":"0.0-4.0-0.1","responseType":"finish","participantID":"mwf49awhhxpadq74n0f8pbgcd4mo6w3o","conditionNumber":1}],"__v":0}
{"_id":{"$oid":"5c43bb78a93b980004ddeb74"},"data":[{"rt":4833,"responses":"{\"Q0\":\" I consent to participate\"}","trial_type":"survey-multi-choice","trial_index":0,"time_elapsed":4875,"internal_node_id":"0.0-0.0","responseType":"finish","participantID":"90ga63jvb3pooq5vwn1e1bmqdb3l3rjb","conditionNumber":0},{"trial_type":"call-function","trial_index":1,"time_elapsed":4893,"internal_node_id":"0.0-1.0","responseType":"finish","participantID":"90ga63jvb3pooq5vwn1e1bmqdb3l3rjb","conditionNumber":0},{"view_history":"[{\"page_index\":0,\"viewing_time\":11336}]","rt":11338,"trial_type":"instructions","trial_index":2,"time_elapsed":16233,"internal_node_id":"0.0-2.0","responseType":"finish","participantID":"90ga63jvb3pooq5vwn1e1bmqdb3l3rjb","conditionNumber":0},{"rt":null,"stimulus":"\u003cblockquote\u003e\n  \u003cp\u003eA man walks into a bar and asks the bartender for a glass of water. The bartender reaches under the bar and brings out a gun and aims it at the man. The man says thank you and leaves.\u003c/p\u003e\n  \u003cp\u003e\u003cem\u003eWhat happened?\u003c/em\u003e\u003c/p\u003e\n\u003c/blockquote\u003e","key_press":null,"trial_type":"html-keyboard-response","trial_index":3,"time_elapsed":41242,"internal_node_id":"0.0-3.0-0.0","responseType":"finish","participantID":"90ga63jvb3pooq5vwn1e1bmqdb3l3rjb","conditionNumber":0},{"rt":null,"stimulus":"\u003cblockquote\u003e\n  \u003cp\u003eHiccups.\u003c/p\u003e\n\u003c/blockquote\u003e","key_press":null,"trial_type":"html-keyboard-response","trial_index":4,"time_elapsed":51246,"internal_node_id":"0.0-3.0-1.0","responseType":"finish","participantID":"90ga63jvb3pooq5vwn1e1bmqdb3l3rjb","conditionNumber":0},{"rt":7654,"response":"31","stimulus":"Please rate how you felt once you understood the solution to the riddle.","trial_type":"html-slider-response","trial_index":5,"time_elapsed":58908,"internal_node_id":"0.0-4.0-0.0","responseType":"finish","participantID":"90ga63jvb3pooq5vwn1e1bmqdb3l3rjb","conditionNumber":0},{"rt":12139,"response":"0","stimulus":"An Aha! moment is when the solution suddenly dawns on you and everything is clear immediately. In a flash. As an example, imagine a light bulb that is switched on all at once in contrast to slowly turning up the lights. Did you experience an Aha! moment upon getting the solution to this puzzle? ","trial_type":"html-slider-response","trial_index":6,"time_elapsed":71052,"internal_node_id":"0.0-4.0-0.1","responseType":"finish","participantID":"90ga63jvb3pooq5vwn1e1bmqdb3l3rjb","conditionNumber":0}],"__v":0}
{"_id":{"$oid":"5c43bb94a93b980004ddeb75"},"data":{"responseType":"start","participantID":"fcae916o4tt981f2c4dpy27d7wr8umtn","conditionNumber":1},"__v":0}
{"_id":{"$oid":"5c43bba1a93b980004ddeb76"},"data":{"responseType":"start","participantID":"7vlpd30ox973mqwx0lkl5aoxcf1l7ml1","conditionNumber":1},"__v":0}
{"_id":{"$oid":"5c43bbdca93b980004ddeb77"},"data":[{"rt":7919,"responses":"{\"Q0\":\" I consent to participate\"}","trial_type":"survey-multi-choice","trial_index":0,"time_elapsed":7937,"internal_node_id":"0.0-0.0","responseType":"finish","participantID":"7vlpd30ox973mqwx0lkl5aoxcf1l7ml1","conditionNumber":1},{"trial_type":"call-function","trial_index":1,"time_elapsed":7958,"internal_node_id":"0.0-1.0","responseType":"finish","participantID":"7vlpd30ox973mqwx0lkl5aoxcf1l7ml1","conditionNumber":1},{"view_history":"[{\"page_index\":0,\"viewing_time\":6846}]","rt":6867,"trial_type":"instructions","trial_index":2,"time_elapsed":14827,"internal_node_id":"0.0-2.0","responseType":"finish","participantID":"7vlpd30ox973mqwx0lkl5aoxcf1l7ml1","conditionNumber":1},{"rt":null,"stimulus":"\u003cblockquote\u003e\n  \u003cp\u003eA man walks into a bar and asks the bartender for a glass of water. The bartender reaches under the bar and brings out a gun and aims it at the man. The man says thank you and leaves.\u003c/p\u003e\n  \u003cp\u003e\u003cem\u003eWhat happened?\u003c/em\u003e\u003c/p\u003e\n\u003c/blockquote\u003e","key_press":null,"trial_type":"html-keyboard-response","trial_index":3,"time_elapsed":34835,"internal_node_id":"0.0-3.0-0.0","responseType":"finish","participantID":"7vlpd30ox973mqwx0lkl5aoxcf1l7ml1","conditionNumber":1},{"rt":null,"stimulus":"\u003cblockquote\u003e\n  \u003cp\u003eWe will now give you a \u003cstrong\u003ehint\u003c/strong\u003e that will help you get the answer to this puzzle.\u003c/p\u003e\n\u003c/blockquote\u003e","key_press":null,"trial_type":"html-keyboard-response","trial_index":4,"time_elapsed":39840,"internal_node_id":"0.0-3.0-1.0","responseType":"finish","participantID":"7vlpd30ox973mqwx0lkl5aoxcf1l7ml1","conditionNumber":1},{"rt":null,"stimulus":"\u003cblockquote\u003e\n  \u003cp\u003eHiccups.\u003c/p\u003e\n\u003c/blockquote\u003e","key_press":null,"trial_type":"html-keyboard-response","trial_index":5,"time_elapsed":49845,"internal_node_id":"0.0-3.0-2.0","responseType":"finish","participantID":"7vlpd30ox973mqwx0lkl5aoxcf1l7ml1","conditionNumber":1},{"rt":15169,"response":"94","stimulus":"An Aha! moment is when the solution suddenly dawns on you and everything is clear immediately. In a flash. As an example, imagine a light bulb that is switched on all at once in contrast to slowly turning up the lights. Did you experience an Aha! moment upon getting the solution to this puzzle? ","trial_type":"html-slider-response","trial_index":6,"time_elapsed":65027,"internal_node_id":"0.0-4.0-0.0","responseType":"finish","participantID":"7vlpd30ox973mqwx0lkl5aoxcf1l7ml1","conditionNumber":1},{"rt":1323,"response":"50","stimulus":"Please rate how you felt once you understood the solution to the riddle.","trial_type":"html-slider-response","trial_index":7,"time_elapsed":66357,"internal_node_id":"0.0-4.0-0.1","responseType":"finish","participantID":"7vlpd30ox973mqwx0lkl5aoxcf1l7ml1","conditionNumber":1}],"__v":0}
{"_id":{"$oid":"5c43bbf8a93b980004ddeb78"},"data":{"responseType":"start","participantID":"cdj0058x3w9fmkrduzffenrdjdzujye9","conditionNumber":1},"__v":0}
{"_id":{"$oid":"5c43bbf9a93b980004ddeb79"},"data":[{"rt":12259,"responses":"{\"Q0\":\" I consent to participate\"}","trial_type":"survey-multi-choice","trial_index":0,"time_elapsed":12265,"internal_node_id":"0.0-0.0","responseType":"finish","participantID":"fcae916o4tt981f2c4dpy27d7wr8umtn","conditionNumber":1},{"trial_type":"call-function","trial_index":1,"time_elapsed":12276,"internal_node_id":"0.0-1.0","responseType":"finish","participantID":"fcae916o4tt981f2c4dpy27d7wr8umtn","conditionNumber":1},{"view_history":"[{\"page_index\":0,\"viewing_time\":41730}]","rt":41732,"trial_type":"instructions","trial_index":2,"time_elapsed":54008,"internal_node_id":"0.0-2.0","responseType":"finish","participantID":"fcae916o4tt981f2c4dpy27d7wr8umtn","conditionNumber":1},{"rt":null,"stimulus":"\u003cblockquote\u003e\n  \u003cp\u003eA man walks into a bar and asks the bartender for a glass of water. The bartender reaches under the bar and brings out a gun and aims it at the man. The man says thank you and leaves.\u003c/p\u003e\n  \u003cp\u003e\u003cem\u003eWhat happened?\u003c/em\u003e\u003c/p\u003e\n\u003c/blockquote\u003e","key_press":null,"trial_type":"html-keyboard-response","trial_index":3,"time_elapsed":74010,"internal_node_id":"0.0-3.0-0.0","responseType":"finish","participantID":"fcae916o4tt981f2c4dpy27d7wr8umtn","conditionNumber":1},{"rt":null,"stimulus":"\u003cblockquote\u003e\n  \u003cp\u003eWe will now give you a \u003cstrong\u003ehint\u003c/strong\u003e that will help you get the answer to this puzzle.\u003c/p\u003e\n\u003c/blockquote\u003e","key_press":null,"trial_type":"html-keyboard-response","trial_index":4,"time_elapsed":79012,"internal_node_id":"0.0-3.0-1.0","responseType":"finish","participantID":"fcae916o4tt981f2c4dpy27d7wr8umtn","conditionNumber":1},{"rt":null,"stimulus":"\u003cblockquote\u003e\n  \u003cp\u003eHiccups.\u003c/p\u003e\n\u003c/blockquote\u003e","key_press":null,"trial_type":"html-keyboard-response","trial_index":5,"time_elapsed":89014,"internal_node_id":"0.0-3.0-2.0","responseType":"finish","participantID":"fcae916o4tt981f2c4dpy27d7wr8umtn","conditionNumber":1},{"rt":18405,"response":"100","stimulus":"An Aha! moment is when the solution suddenly dawns on you and everything is clear immediately. In a flash. As an example, imagine a light bulb that is switched on all at once in contrast to slowly turning up the lights. Did you experience an Aha! moment upon getting the solution to this puzzle? ","trial_type":"html-slider-response","trial_index":6,"time_elapsed":107422,"internal_node_id":"0.0-4.0-0.0","responseType":"finish","participantID":"fcae916o4tt981f2c4dpy27d7wr8umtn","conditionNumber":1},{"rt":6259,"response":"100","stimulus":"Please rate how you felt once you understood the solution to the riddle.","trial_type":"html-slider-response","trial_index":7,"time_elapsed":113685,"internal_node_id":"0.0-4.0-0.1","responseType":"finish","participantID":"fcae916o4tt981f2c4dpy27d7wr8umtn","conditionNumber":1}],"__v":0}
{"_id":{"$oid":"5c43bc02a93b980004ddeb7a"},"data":{"responseType":"start","participantID":"yfpp173nfnd56n3or9q7qkr8ez5ao2jh","conditionNumber":1},"__v":0}
{"_id":{"$oid":"5c43bc4ea93b980004ddeb7b"},"data":[{"rt":6209,"responses":"{\"Q0\":\" I consent to participate\"}","trial_type":"survey-multi-choice","trial_index":0,"time_elapsed":6237,"internal_node_id":"0.0-0.0","responseType":"finish","participantID":"cdj0058x3w9fmkrduzffenrdjdzujye9","conditionNumber":1},{"trial_type":"call-function","trial_index":1,"time_elapsed":6252,"internal_node_id":"0.0-1.0","responseType":"finish","participantID":"cdj0058x3w9fmkrduzffenrdjdzujye9","conditionNumber":1},{"view_history":"[{\"page_index\":0,\"viewing_time\":14558}]","rt":14560,"trial_type":"instructions","trial_index":2,"time_elapsed":20818,"internal_node_id":"0.0-2.0","responseType":"finish","participantID":"cdj0058x3w9fmkrduzffenrdjdzujye9","conditionNumber":1},{"rt":null,"stimulus":"\u003cblockquote\u003e\n  \u003cp\u003eA man walks into a bar and asks the bartender for a glass of water. The bartender reaches under the bar and brings out a gun and aims it at the man. The man says thank you and leaves.\u003c/p\u003e\n  \u003cp\u003e\u003cem\u003eWhat happened?\u003c/em\u003e\u003c/p\u003e\n\u003c/blockquote\u003e","key_press":null,"trial_type":"html-keyboard-response","trial_index":3,"time_elapsed":40825,"internal_node_id":"0.0-3.0-0.0","responseType":"finish","participantID":"cdj0058x3w9fmkrduzffenrdjdzujye9","conditionNumber":1},{"rt":null,"stimulus":"\u003cblockquote\u003e\n  \u003cp\u003eWe will now give you a \u003cstrong\u003ehint\u003c/strong\u003e that will help you get the answer to this puzzle.\u003c/p\u003e\n\u003c/blockquote\u003e","key_press":null,"trial_type":"html-keyboard-response","trial_index":4,"time_elapsed":45829,"internal_node_id":"0.0-3.0-1.0","responseType":"finish","participantID":"cdj0058x3w9fmkrduzffenrdjdzujye9","conditionNumber":1},{"rt":null,"stimulus":"\u003cblockquote\u003e\n  \u003cp\u003eHiccups.\u003c/p\u003e\n\u003c/blockquote\u003e","key_press":null,"trial_type":"html-keyboard-response","trial_index":5,"time_elapsed":55835,"internal_node_id":"0.0-3.0-2.0","responseType":"finish","participantID":"cdj0058x3w9fmkrduzffenrdjdzujye9","conditionNumber":1},{"rt":24313,"response":"100","stimulus":"An Aha! moment is when the solution suddenly dawns on you and everything is clear immediately. In a flash. As an example, imagine a light bulb that is switched on all at once in contrast to slowly turning up the lights. Did you experience an Aha! moment upon getting the solution to this puzzle? ","trial_type":"html-slider-response","trial_index":6,"time_elapsed":80157,"internal_node_id":"0.0-4.0-0.0","responseType":"finish","participantID":"cdj0058x3w9fmkrduzffenrdjdzujye9","conditionNumber":1},{"rt":11658,"response":"97","stimulus":"Please rate how you felt once you understood the solution to the riddle.","trial_type":"html-slider-response","trial_index":7,"time_elapsed":91820,"internal_node_id":"0.0-4.0-0.1","responseType":"finish","participantID":"cdj0058x3w9fmkrduzffenrdjdzujye9","conditionNumber":1}],"__v":0}
{"_id":{"$oid":"5c43bc50a93b980004ddeb7c"},"data":[{"rt":69658,"responses":"{\"Q0\":\" I consent to participate\"}","trial_type":"survey-multi-choice","trial_index":0,"time_elapsed":69682,"internal_node_id":"0.0-0.0","responseType":"finish","participantID":"yfpp173nfnd56n3or9q7qkr8ez5ao2jh","conditionNumber":1},{"trial_type":"call-function","trial_index":1,"time_elapsed":69695,"internal_node_id":"0.0-1.0","responseType":"finish","participantID":"yfpp173nfnd56n3or9q7qkr8ez5ao2jh","conditionNumber":1},{"view_history":"[{\"page_index\":0,\"viewing_time\":17412}]","rt":17414,"trial_type":"instructions","trial_index":2,"time_elapsed":87111,"internal_node_id":"0.0-2.0","responseType":"finish","participantID":"yfpp173nfnd56n3or9q7qkr8ez5ao2jh","conditionNumber":1},{"rt":null,"stimulus":"\u003cblockquote\u003e\n  \u003cp\u003eA man walks into a bar and asks the bartender for a glass of water. The bartender reaches under the bar and brings out a gun and aims it at the man. The man says thank you and leaves.\u003c/p\u003e\n  \u003cp\u003e\u003cem\u003eWhat happened?\u003c/em\u003e\u003c/p\u003e\n\u003c/blockquote\u003e","key_press":null,"trial_type":"html-keyboard-response","trial_index":3,"time_elapsed":107121,"internal_node_id":"0.0-3.0-0.0","responseType":"finish","participantID":"yfpp173nfnd56n3or9q7qkr8ez5ao2jh","conditionNumber":1},{"rt":null,"stimulus":"\u003cblockquote\u003e\n  \u003cp\u003eWe will now give you a \u003cstrong\u003ehint\u003c/strong\u003e that will help you get the answer to this puzzle.\u003c/p\u003e\n\u003c/blockquote\u003e","key_press":null,"trial_type":"html-keyboard-response","trial_index":4,"time_elapsed":112127,"internal_node_id":"0.0-3.0-1.0","responseType":"finish","participantID":"yfpp173nfnd56n3or9q7qkr8ez5ao2jh","conditionNumber":1},{"rt":null,"stimulus":"\u003cblockquote\u003e\n  \u003cp\u003eHiccups.\u003c/p\u003e\n\u003c/blockquote\u003e","key_press":null,"trial_type":"html-keyboard-response","trial_index":5,"time_elapsed":122131,"internal_node_id":"0.0-3.0-2.0","responseType":"finish","participantID":"yfpp173nfnd56n3or9q7qkr8ez5ao2jh","conditionNumber":1},{"rt":9575,"response":"96","stimulus":"Please rate how you felt once you understood the solution to the riddle.","trial_type":"html-slider-response","trial_index":6,"time_elapsed":131720,"internal_node_id":"0.0-4.0-0.0","responseType":"finish","participantID":"yfpp173nfnd56n3or9q7qkr8ez5ao2jh","conditionNumber":1},{"rt":15876,"response":"92","stimulus":"An Aha! moment is when the solution suddenly dawns on you and everything is clear immediately. In a flash. As an example, imagine a light bulb that is switched on all at once in contrast to slowly turning up the lights. Did you experience an Aha! moment upon getting the solution to this puzzle? ","trial_type":"html-slider-response","trial_index":7,"time_elapsed":147600,"internal_node_id":"0.0-4.0-0.1","responseType":"finish","participantID":"yfpp173nfnd56n3or9q7qkr8ez5ao2jh","conditionNumber":1}],"__v":0}
{"_id":{"$oid":"5c43bc7ea93b980004ddeb7d"},"data":{"responseType":"start","participantID":"5sn1uffq8hkjm88t8mew3wzntvlsnsju","conditionNumber":0},"__v":0}
{"_id":{"$oid":"5c43bcb4a93b980004ddeb7e"},"data":[{"rt":2808,"responses":"{\"Q0\":\" I consent to participate\"}","trial_type":"survey-multi-choice","trial_index":0,"time_elapsed":2820,"internal_node_id":"0.0-0.0","responseType":"finish","participantID":"5sn1uffq8hkjm88t8mew3wzntvlsnsju","conditionNumber":0},{"trial_type":"call-function","trial_index":1,"time_elapsed":2825,"internal_node_id":"0.0-1.0","responseType":"finish","participantID":"5sn1uffq8hkjm88t8mew3wzntvlsnsju","conditionNumber":0},{"view_history":"[{\"page_index\":0,\"viewing_time\":5684}]","rt":5685,"trial_type":"instructions","trial_index":2,"time_elapsed":8511,"internal_node_id":"0.0-2.0","responseType":"finish","participantID":"5sn1uffq8hkjm88t8mew3wzntvlsnsju","conditionNumber":0},{"rt":null,"stimulus":"\u003cblockquote\u003e\n  \u003cp\u003eA man walks into a bar and asks the bartender for a glass of water. The bartender reaches under the bar and brings out a gun and aims it at the man. The man says thank you and leaves.\u003c/p\u003e\n  \u003cp\u003e\u003cem\u003eWhat happened?\u003c/em\u003e\u003c/p\u003e\n\u003c/blockquote\u003e","key_press":null,"trial_type":"html-keyboard-response","trial_index":3,"time_elapsed":33514,"internal_node_id":"0.0-3.0-0.0","responseType":"finish","participantID":"5sn1uffq8hkjm88t8mew3wzntvlsnsju","conditionNumber":0},{"rt":null,"stimulus":"\u003cblockquote\u003e\n  \u003cp\u003eHiccups.\u003c/p\u003e\n\u003c/blockquote\u003e","key_press":null,"trial_type":"html-keyboard-response","trial_index":4,"time_elapsed":43515,"internal_node_id":"0.0-3.0-1.0","responseType":"finish","participantID":"5sn1uffq8hkjm88t8mew3wzntvlsnsju","conditionNumber":0},{"rt":7856,"response":"11","stimulus":"An Aha! moment is when the solution suddenly dawns on you and everything is clear immediately. In a flash. As an example, imagine a light bulb that is switched on all at once in contrast to slowly turning up the lights. Did you experience an Aha! moment upon getting the solution to this puzzle? ","trial_type":"html-slider-response","trial_index":5,"time_elapsed":51376,"internal_node_id":"0.0-4.0-0.0","responseType":"finish","participantID":"5sn1uffq8hkjm88t8mew3wzntvlsnsju","conditionNumber":0},{"rt":5336,"response":"28","stimulus":"Please rate how you felt once you understood the solution to the riddle.","trial_type":"html-slider-response","trial_index":6,"time_elapsed":56714,"internal_node_id":"0.0-4.0-0.1","responseType":"finish","participantID":"5sn1uffq8hkjm88t8mew3wzntvlsnsju","conditionNumber":0}],"__v":0}
{"_id":{"$oid":"5c43bd12a93b980004ddeb7f"},"data":{"responseType":"start","participantID":"usrd5f1gnnzzx610txklc29xx14x3h44","conditionNumber":0},"__v":0}
{"_id":{"$oid":"5c43bd1aa93b980004ddeb80"},"data":{"responseType":"start","participantID":"4u10jjgnwppjz59m5c306yqwtusmnrm4","conditionNumber":1},"__v":0}
{"_id":{"$oid":"5c43bd1ca93b980004ddeb81"},"data":[{"rt":327509,"responses":"{\"Q0\":\" I consent to participate\"}","trial_type":"survey-multi-choice","trial_index":0,"time_elapsed":327522,"internal_node_id":"0.0-0.0","responseType":"finish","participantID":"9yrq7esa824l3rl4hd5mtbr6a8qdrpsz","conditionNumber":0},{"trial_type":"call-function","trial_index":1,"time_elapsed":327531,"internal_node_id":"0.0-1.0","responseType":"finish","participantID":"9yrq7esa824l3rl4hd5mtbr6a8qdrpsz","conditionNumber":0},{"view_history":"[{\"page_index\":0,\"viewing_time\":906048}]","rt":906049,"trial_type":"instructions","trial_index":2,"time_elapsed":1233582,"internal_node_id":"0.0-2.0","responseType":"finish","participantID":"9yrq7esa824l3rl4hd5mtbr6a8qdrpsz","conditionNumber":0},{"rt":null,"stimulus":"\u003cblockquote\u003e\n  \u003cp\u003eA man walks into a bar and asks the bartender for a glass of water. The bartender reaches under the bar and brings out a gun and aims it at the man. The man says thank you and leaves.\u003c/p\u003e\n  \u003cp\u003e\u003cem\u003eWhat happened?\u003c/em\u003e\u003c/p\u003e\n\u003c/blockquote\u003e","key_press":null,"trial_type":"html-keyboard-response","trial_index":3,"time_elapsed":1259381,"internal_node_id":"0.0-3.0-0.0","responseType":"finish","participantID":"9yrq7esa824l3rl4hd5mtbr6a8qdrpsz","conditionNumber":0},{"rt":null,"stimulus":"\u003cblockquote\u003e\n  \u003cp\u003eHiccups.\u003c/p\u003e\n\u003c/blockquote\u003e","key_press":null,"trial_type":"html-keyboard-response","trial_index":4,"time_elapsed":1269874,"internal_node_id":"0.0-3.0-1.0","responseType":"finish","participantID":"9yrq7esa824l3rl4hd5mtbr6a8qdrpsz","conditionNumber":0},{"rt":12111,"response":"29","stimulus":"Please rate how you felt once you understood the solution to the riddle.","trial_type":"html-slider-response","trial_index":5,"time_elapsed":1281986,"internal_node_id":"0.0-4.0-0.0","responseType":"finish","participantID":"9yrq7esa824l3rl4hd5mtbr6a8qdrpsz","conditionNumber":0},{"rt":10192,"response":"86","stimulus":"An Aha! moment is when the solution suddenly dawns on you and everything is clear immediately. In a flash. As an example, imagine a light bulb that is switched on all at once in contrast to slowly turning up the lights. Did you experience an Aha! moment upon getting the solution to this puzzle? ","trial_type":"html-slider-response","trial_index":6,"time_elapsed":1292182,"internal_node_id":"0.0-4.0-0.1","responseType":"finish","participantID":"9yrq7esa824l3rl4hd5mtbr6a8qdrpsz","conditionNumber":0}],"__v":0}
{"_id":{"$oid":"5c43bd47a93b980004ddeb82"},"data":[{"rt":7502,"responses":"{\"Q0\":\" I consent to participate\"}","trial_type":"survey-multi-choice","trial_index":0,"time_elapsed":7513,"internal_node_id":"0.0-0.0","responseType":"finish","participantID":"usrd5f1gnnzzx610txklc29xx14x3h44","conditionNumber":0},{"trial_type":"call-function","trial_index":1,"time_elapsed":7520,"internal_node_id":"0.0-1.0","responseType":"finish","participantID":"usrd5f1gnnzzx610txklc29xx14x3h44","conditionNumber":0},{"view_history":"[{\"page_index\":0,\"viewing_time\":4995}]","rt":4995,"trial_type":"instructions","trial_index":2,"time_elapsed":12517,"internal_node_id":"0.0-2.0","responseType":"finish","participantID":"usrd5f1gnnzzx610txklc29xx14x3h44","conditionNumber":0},{"rt":null,"stimulus":"\u003cblockquote\u003e\n  \u003cp\u003eA man walks into a bar and asks the bartender for a glass of water. The bartender reaches under the bar and brings out a gun and aims it at the man. The man says thank you and leaves.\u003c/p\u003e\n  \u003cp\u003e\u003cem\u003eWhat happened?\u003c/em\u003e\u003c/p\u003e\n\u003c/blockquote\u003e","key_press":null,"trial_type":"html-keyboard-response","trial_index":3,"time_elapsed":37524,"internal_node_id":"0.0-3.0-0.0","responseType":"finish","participantID":"usrd5f1gnnzzx610txklc29xx14x3h44","conditionNumber":0},{"rt":null,"stimulus":"\u003cblockquote\u003e\n  \u003cp\u003eHiccups.\u003c/p\u003e\n\u003c/blockquote\u003e","key_press":null,"trial_type":"html-keyboard-response","trial_index":4,"time_elapsed":47531,"internal_node_id":"0.0-3.0-1.0","responseType":"finish","participantID":"usrd5f1gnnzzx610txklc29xx14x3h44","conditionNumber":0},{"rt":5797,"response":"51","stimulus":"Please rate how you felt once you understood the solution to the riddle.","trial_type":"html-slider-response","trial_index":5,"time_elapsed":53334,"internal_node_id":"0.0-4.0-0.0","responseType":"finish","participantID":"usrd5f1gnnzzx610txklc29xx14x3h44","conditionNumber":0},{"rt":6981,"response":"0","stimulus":"An Aha! moment is when the solution suddenly dawns on you and everything is clear immediately. In a flash. As an example, imagine a light bulb that is switched on all at once in contrast to slowly turning up the lights. Did you experience an Aha! moment upon getting the solution to this puzzle? ","trial_type":"html-slider-response","trial_index":6,"time_elapsed":60317,"internal_node_id":"0.0-4.0-0.1","responseType":"finish","participantID":"usrd5f1gnnzzx610txklc29xx14x3h44","conditionNumber":0}],"__v":0}
{"_id":{"$oid":"5c43bd53a93b980004ddeb83"},"data":[{"rt":12894,"responses":"{\"Q0\":\" I consent to participate\"}","trial_type":"survey-multi-choice","trial_index":0,"time_elapsed":12924,"internal_node_id":"0.0-0.0","responseType":"finish","participantID":"4u10jjgnwppjz59m5c306yqwtusmnrm4","conditionNumber":1},{"trial_type":"call-function","trial_index":1,"time_elapsed":12939,"internal_node_id":"0.0-1.0","responseType":"finish","participantID":"4u10jjgnwppjz59m5c306yqwtusmnrm4","conditionNumber":1},{"view_history":"[{\"page_index\":0,\"viewing_time\":8960}]","rt":8961,"trial_type":"instructions","trial_index":2,"time_elapsed":21900,"internal_node_id":"0.0-2.0","responseType":"finish","participantID":"4u10jjgnwppjz59m5c306yqwtusmnrm4","conditionNumber":1},{"rt":null,"stimulus":"\u003cblockquote\u003e\n  \u003cp\u003eA man walks into a bar and asks the bartender for a glass of water. The bartender reaches under the bar and brings out a gun and aims it at the man. The man says thank you and leaves.\u003c/p\u003e\n  \u003cp\u003e\u003cem\u003eWhat happened?\u003c/em\u003e\u003c/p\u003e\n\u003c/blockquote\u003e","key_press":null,"trial_type":"html-keyboard-response","trial_index":3,"time_elapsed":41901,"internal_node_id":"0.0-3.0-0.0","responseType":"finish","participantID":"4u10jjgnwppjz59m5c306yqwtusmnrm4","conditionNumber":1},{"rt":null,"stimulus":"\u003cblockquote\u003e\n  \u003cp\u003eWe will now give you a \u003cstrong\u003ehint\u003c/strong\u003e that will help you get the answer to this puzzle.\u003c/p\u003e\n\u003c/blockquote\u003e","key_press":null,"trial_type":"html-keyboard-response","trial_index":4,"time_elapsed":46903,"internal_node_id":"0.0-3.0-1.0","responseType":"finish","participantID":"4u10jjgnwppjz59m5c306yqwtusmnrm4","conditionNumber":1},{"rt":null,"stimulus":"\u003cblockquote\u003e\n  \u003cp\u003eHiccups.\u003c/p\u003e\n\u003c/blockquote\u003e","key_press":null,"trial_type":"html-keyboard-response","trial_index":5,"time_elapsed":56905,"internal_node_id":"0.0-3.0-2.0","responseType":"finish","participantID":"4u10jjgnwppjz59m5c306yqwtusmnrm4","conditionNumber":1},{"rt":5136,"response":"81","stimulus":"Please rate how you felt once you understood the solution to the riddle.","trial_type":"html-slider-response","trial_index":6,"time_elapsed":62043,"internal_node_id":"0.0-4.0-0.0","responseType":"finish","participantID":"4u10jjgnwppjz59m5c306yqwtusmnrm4","conditionNumber":1},{"rt":8498,"response":"89","stimulus":"An Aha! moment is when the solution suddenly dawns on you and everything is clear immediately. In a flash. As an example, imagine a light bulb that is switched on all at once in contrast to slowly turning up the lights. Did you experience an Aha! moment upon getting the solution to this puzzle? ","trial_type":"html-slider-response","trial_index":7,"time_elapsed":70541,"internal_node_id":"0.0-4.0-0.1","responseType":"finish","participantID":"4u10jjgnwppjz59m5c306yqwtusmnrm4","conditionNumber":1}],"__v":0}
{"_id":{"$oid":"5c43bd5fa93b980004ddeb84"},"data":{"responseType":"start","participantID":"s2m0nfvshqmbj607rnojcabx0nzrk9yl","conditionNumber":1},"__v":0}
{"_id":{"$oid":"5c43bd61a93b980004ddeb85"},"data":{"responseType":"start","participantID":"gwdxr6qerdyz85t2dz8v5jxr5d76xbe3","conditionNumber":1},"__v":0}
{"_id":{"$oid":"5c43bd7da93b980004ddeb86"},"data":{"responseType":"start","participantID":"pbssbhyck6r2wbhxxr11qqdw8txjyq5d","conditionNumber":0},"__v":0}
{"_id":{"$oid":"5c43bd9fa93b980004ddeb87"},"data":[{"rt":10948,"responses":"{\"Q0\":\" I consent to participate\"}","trial_type":"survey-multi-choice","trial_index":0,"time_elapsed":10963,"internal_node_id":"0.0-0.0","responseType":"finish","participantID":"gwdxr6qerdyz85t2dz8v5jxr5d76xbe3","conditionNumber":1},{"trial_type":"call-function","trial_index":1,"time_elapsed":10976,"internal_node_id":"0.0-1.0","responseType":"finish","participantID":"gwdxr6qerdyz85t2dz8v5jxr5d76xbe3","conditionNumber":1},{"view_history":"[{\"page_index\":0,\"viewing_time\":9354}]","rt":9354,"trial_type":"instructions","trial_index":2,"time_elapsed":20332,"internal_node_id":"0.0-2.0","responseType":"finish","participantID":"gwdxr6qerdyz85t2dz8v5jxr5d76xbe3","conditionNumber":1},{"rt":null,"stimulus":"\u003cblockquote\u003e\n  \u003cp\u003eA man walks into a bar and asks the bartender for a glass of water. The bartender reaches under the bar and brings out a gun and aims it at the man. The man says thank you and leaves.\u003c/p\u003e\n  \u003cp\u003e\u003cem\u003eWhat happened?\u003c/em\u003e\u003c/p\u003e\n\u003c/blockquote\u003e","key_press":null,"trial_type":"html-keyboard-response","trial_index":3,"time_elapsed":40337,"internal_node_id":"0.0-3.0-0.0","responseType":"finish","participantID":"gwdxr6qerdyz85t2dz8v5jxr5d76xbe3","conditionNumber":1},{"rt":null,"stimulus":"\u003cblockquote\u003e\n  \u003cp\u003eWe will now give you a \u003cstrong\u003ehint\u003c/strong\u003e that will help you get the answer to this puzzle.\u003c/p\u003e\n\u003c/blockquote\u003e","key_press":null,"trial_type":"html-keyboard-response","trial_index":4,"time_elapsed":45339,"internal_node_id":"0.0-3.0-1.0","responseType":"finish","participantID":"gwdxr6qerdyz85t2dz8v5jxr5d76xbe3","conditionNumber":1},{"rt":null,"stimulus":"\u003cblockquote\u003e\n  \u003cp\u003eHiccups.\u003c/p\u003e\n\u003c/blockquote\u003e","key_press":null,"trial_type":"html-keyboard-response","trial_index":5,"time_elapsed":55342,"internal_node_id":"0.0-3.0-2.0","responseType":"finish","participantID":"gwdxr6qerdyz85t2dz8v5jxr5d76xbe3","conditionNumber":1},{"rt":6687,"response":"29","stimulus":"Please rate how you felt once you understood the solution to the riddle.","trial_type":"html-slider-response","trial_index":6,"time_elapsed":62033,"internal_node_id":"0.0-4.0-0.0","responseType":"finish","participantID":"gwdxr6qerdyz85t2dz8v5jxr5d76xbe3","conditionNumber":1},{"rt":11211,"response":"22","stimulus":"An Aha! moment is when the solution suddenly dawns on you and everything is clear immediately. In a flash. As an example, imagine a light bulb that is switched on all at once in contrast to slowly turning up the lights. Did you experience an Aha! moment upon getting the solution to this puzzle? ","trial_type":"html-slider-response","trial_index":7,"time_elapsed":73246,"internal_node_id":"0.0-4.0-0.1","responseType":"finish","participantID":"gwdxr6qerdyz85t2dz8v5jxr5d76xbe3","conditionNumber":1}],"__v":0}
{"_id":{"$oid":"5c43bdb0a93b980004ddeb88"},"data":[{"rt":4306,"responses":"{\"Q0\":\" I consent to participate\"}","trial_type":"survey-multi-choice","trial_index":0,"time_elapsed":4310,"internal_node_id":"0.0-0.0","responseType":"finish","participantID":"pbssbhyck6r2wbhxxr11qqdw8txjyq5d","conditionNumber":0},{"trial_type":"call-function","trial_index":1,"time_elapsed":4312,"internal_node_id":"0.0-1.0","responseType":"finish","participantID":"pbssbhyck6r2wbhxxr11qqdw8txjyq5d","conditionNumber":0},{"view_history":"[{\"page_index\":0,\"viewing_time\":6633}]","rt":6633,"trial_type":"instructions","trial_index":2,"time_elapsed":10945,"internal_node_id":"0.0-2.0","responseType":"finish","participantID":"pbssbhyck6r2wbhxxr11qqdw8txjyq5d","conditionNumber":0},{"rt":null,"stimulus":"\u003cblockquote\u003e\n  \u003cp\u003eA man walks into a bar and asks the bartender for a glass of water. The bartender reaches under the bar and brings out a gun and aims it at the man. The man says thank you and leaves.\u003c/p\u003e\n  \u003cp\u003e\u003cem\u003eWhat happened?\u003c/em\u003e\u003c/p\u003e\n\u003c/blockquote\u003e","key_press":null,"trial_type":"html-keyboard-response","trial_index":3,"time_elapsed":35948,"internal_node_id":"0.0-3.0-0.0","responseType":"finish","participantID":"pbssbhyck6r2wbhxxr11qqdw8txjyq5d","conditionNumber":0},{"rt":null,"stimulus":"\u003cblockquote\u003e\n  \u003cp\u003eHiccups.\u003c/p\u003e\n\u003c/blockquote\u003e","key_press":null,"trial_type":"html-keyboard-response","trial_index":4,"time_elapsed":45948,"internal_node_id":"0.0-3.0-1.0","responseType":"finish","participantID":"pbssbhyck6r2wbhxxr11qqdw8txjyq5d","conditionNumber":0},{"rt":6789,"response":"74","stimulus":"An Aha! moment is when the solution suddenly dawns on you and everything is clear immediately. In a flash. As an example, imagine a light bulb that is switched on all at once in contrast to slowly turning up the lights. Did you experience an Aha! moment upon getting the solution to this puzzle? ","trial_type":"html-slider-response","trial_index":5,"time_elapsed":52738,"internal_node_id":"0.0-4.0-0.0","responseType":"finish","participantID":"pbssbhyck6r2wbhxxr11qqdw8txjyq5d","conditionNumber":0},{"rt":2316,"response":"50","stimulus":"Please rate how you felt once you understood the solution to the riddle.","trial_type":"html-slider-response","trial_index":6,"time_elapsed":55055,"internal_node_id":"0.0-4.0-0.1","responseType":"finish","participantID":"pbssbhyck6r2wbhxxr11qqdw8txjyq5d","conditionNumber":0}],"__v":0}
{"_id":{"$oid":"5c43bdbba93b980004ddeb89"},"data":[{"rt":7877,"responses":"{\"Q0\":\" I consent to participate\"}","trial_type":"survey-multi-choice","trial_index":0,"time_elapsed":7881,"internal_node_id":"0.0-0.0","responseType":"finish","participantID":"s2m0nfvshqmbj607rnojcabx0nzrk9yl","conditionNumber":1},{"trial_type":"call-function","trial_index":1,"time_elapsed":7885,"internal_node_id":"0.0-1.0","responseType":"finish","participantID":"s2m0nfvshqmbj607rnojcabx0nzrk9yl","conditionNumber":1},{"view_history":"[{\"page_index\":0,\"viewing_time\":7818}]","rt":7818,"trial_type":"instructions","trial_index":2,"time_elapsed":15704,"internal_node_id":"0.0-2.0","responseType":"finish","participantID":"s2m0nfvshqmbj607rnojcabx0nzrk9yl","conditionNumber":1},{"rt":null,"stimulus":"\u003cblockquote\u003e\n  \u003cp\u003eA man walks into a bar and asks the bartender for a glass of water. The bartender reaches under the bar and brings out a gun and aims it at the man. The man says thank you and leaves.\u003c/p\u003e\n  \u003cp\u003e\u003cem\u003eWhat happened?\u003c/em\u003e\u003c/p\u003e\n\u003c/blockquote\u003e","key_press":null,"trial_type":"html-keyboard-response","trial_index":3,"time_elapsed":35706,"internal_node_id":"0.0-3.0-0.0","responseType":"finish","participantID":"s2m0nfvshqmbj607rnojcabx0nzrk9yl","conditionNumber":1},{"rt":null,"stimulus":"\u003cblockquote\u003e\n  \u003cp\u003eWe will now give you a \u003cstrong\u003ehint\u003c/strong\u003e that will help you get the answer to this puzzle.\u003c/p\u003e\n\u003c/blockquote\u003e","key_press":null,"trial_type":"html-keyboard-response","trial_index":4,"time_elapsed":40708,"internal_node_id":"0.0-3.0-1.0","responseType":"finish","participantID":"s2m0nfvshqmbj607rnojcabx0nzrk9yl","conditionNumber":1},{"rt":null,"stimulus":"\u003cblockquote\u003e\n  \u003cp\u003eHiccups.\u003c/p\u003e\n\u003c/blockquote\u003e","key_press":null,"trial_type":"html-keyboard-response","trial_index":5,"time_elapsed":50710,"internal_node_id":"0.0-3.0-2.0","responseType":"finish","participantID":"s2m0nfvshqmbj607rnojcabx0nzrk9yl","conditionNumber":1},{"rt":44734,"response":"68","stimulus":"An Aha! moment is when the solution suddenly dawns on you and everything is clear immediately. In a flash. As an example, imagine a light bulb that is switched on all at once in contrast to slowly turning up the lights. Did you experience an Aha! moment upon getting the solution to this puzzle? ","trial_type":"html-slider-response","trial_index":6,"time_elapsed":95445,"internal_node_id":"0.0-4.0-0.0","responseType":"finish","participantID":"s2m0nfvshqmbj607rnojcabx0nzrk9yl","conditionNumber":1},{"rt":4286,"response":"74","stimulus":"Please rate how you felt once you understood the solution to the riddle.","trial_type":"html-slider-response","trial_index":7,"time_elapsed":99732,"internal_node_id":"0.0-4.0-0.1","responseType":"finish","participantID":"s2m0nfvshqmbj607rnojcabx0nzrk9yl","conditionNumber":1}],"__v":0}
{"_id":{"$oid":"5c43bdc4a93b980004ddeb8a"},"data":{"responseType":"start","participantID":"f3uj2eeg436aa4g9y878v16oqbyonygd","conditionNumber":1},"__v":0}
