{"_id":{"$oid":"5c48f2ca6ccf5a0004f922c9"},"data":{"responseType":"start","participantID":"l08qwm0c87qpy0a1bgqbj2vcqbs3sgv8","conditionNumber":0},"__v":0}
{"_id":{"$oid":"5c48f2ed6ccf5a0004f922ca"},"data":{"responseType":"start","participantID":"x7944w61xsugz6v8u9gf3c5knzfcblhw","conditionNumber":1},"__v":0}
{"_id":{"$oid":"5c48f2f06ccf5a0004f922cb"},"data":{"responseType":"start","participantID":"r1ed9486r5g8kkjt35z9l6drw2oqpr95","conditionNumber":0},"__v":0}
{"_id":{"$oid":"5c48f32c6ccf5a0004f922cc"},"data":{"responseType":"start","participantID":"zltggur6bukmj4652y0s3b2cafhwck7o","conditionNumber":1},"__v":0}
{"_id":{"$oid":"5c48f3706ccf5a0004f922cd"},"data":{"responseType":"start","participantID":"koou2d4c3jstkk1r55pemllt7n06oejo","conditionNumber":0},"__v":0}
{"_id":{"$oid":"5c48f3736ccf5a0004f922ce"},"data":{"responseType":"start","participantID":"1jx8cjvmrw0zknnrwqzc5cgwf3nro4hs","conditionNumber":1},"__v":0}
{"_id":{"$oid":"5c48f3776ccf5a0004f922cf"},"data":[{"rt":7266,"responses":"{\"Q0\":\" I consent to participate\"}","trial_type":"survey-multi-choice","trial_index":0,"time_elapsed":7274,"internal_node_id":"0.0-0.0","responseType":"finish","participantID":"x7944w61xsugz6v8u9gf3c5knzfcblhw","conditionNumber":1},{"trial_type":"call-function","trial_index":1,"time_elapsed":7279,"internal_node_id":"0.0-1.0","responseType":"finish","participantID":"x7944w61xsugz6v8u9gf3c5knzfcblhw","conditionNumber":1},{"view_history":"[{\"page_index\":0,\"viewing_time\":4145},{\"page_index\":1,\"viewing_time\":13248},{\"page_index\":2,\"viewing_time\":8808}]","rt":26201,"trial_type":"instructions","trial_index":2,"time_elapsed":33480,"internal_node_id":"0.0-2.0","responseType":"finish","participantID":"x7944w61xsugz6v8u9gf3c5knzfcblhw","conditionNumber":1},{"rt":4376,"stimulus":"\u003cblockquote\u003e\n  \u003ch1 id=\"orod\"\u003eOROD\u003c/h1\u003e\n  \u003cp\u003e\u003cbr\u003e\u003cbr\u003e Press 'y' if you have solved the anagram.\u003c/p\u003e\n\u003c/blockquote\u003e","key_press":89,"trial_type":"html-keyboard-response","trial_index":3,"time_elapsed":37859,"internal_node_id":"0.0-3.0-0.0","responseType":"finish","participantID":"x7944w61xsugz6v8u9gf3c5knzfcblhw","conditionNumber":1},{"rt":6130,"responses":"{\"Q0\":\"door\"}","trial_type":"survey-text","trial_index":4,"time_elapsed":43992,"internal_node_id":"0.0-3.0-1.0","responseType":"finish","participantID":"x7944w61xsugz6v8u9gf3c5knzfcblhw","conditionNumber":1},{"rt":3595,"stimulus":"\u003cblockquote\u003e\n  \u003cp\u003eNow the next anagram will be shown to you. \u003cbr\u003e\u003cbr\u003e Press 'v' to view the next anagram.\u003c/p\u003e\n\u003c/blockquote\u003e","key_press":86,"trial_type":"html-keyboard-response","trial_index":5,"time_elapsed":47589,"internal_node_id":"0.0-3.0-2.0","responseType":"finish","participantID":"x7944w61xsugz6v8u9gf3c5knzfcblhw","conditionNumber":1},{"rt":27003,"stimulus":"\u003cblockquote\u003e\n  \u003ch1 id=\"bluk\"\u003eBLUK\u003c/h1\u003e\n  \u003cp\u003e\u003cbr\u003e\u003cbr\u003e Press 'y' if you have solved the anagram.\u003c/p\u003e\n\u003c/blockquote\u003e","key_press":89,"trial_type":"html-keyboard-response","trial_index":6,"time_elapsed":74594,"internal_node_id":"0.0-3.0-3.0","responseType":"finish","participantID":"x7944w61xsugz6v8u9gf3c5knzfcblhw","conditionNumber":1},{"rt":4476,"responses":"{\"Q0\":\"\"}","trial_type":"survey-text","trial_index":7,"time_elapsed":79072,"internal_node_id":"0.0-3.0-4.0","responseType":"finish","participantID":"x7944w61xsugz6v8u9gf3c5knzfcblhw","conditionNumber":1},{"rt":1741,"stimulus":"\u003cblockquote\u003e\n  \u003cp\u003eNow the next anagram will be shown to you. \u003cbr\u003e\u003cbr\u003e Press 'v' to view the next anagram.\u003c/p\u003e\n\u003c/blockquote\u003e","key_press":86,"trial_type":"html-keyboard-response","trial_index":8,"time_elapsed":80814,"internal_node_id":"0.0-3.0-5.0","responseType":"finish","participantID":"x7944w61xsugz6v8u9gf3c5knzfcblhw","conditionNumber":1},{"rt":4399,"stimulus":"\u003cblockquote\u003e\n  \u003ch1 id=\"pitn\"\u003ePITN\u003c/h1\u003e\n  \u003cp\u003e\u003cbr\u003e\u003cbr\u003e Press 'y' if you have solved the anagram.\u003c/p\u003e\n\u003c/blockquote\u003e","key_press":89,"trial_type":"html-keyboard-response","trial_index":9,"time_elapsed":85214,"internal_node_id":"0.0-3.0-6.0","responseType":"finish","participantID":"x7944w61xsugz6v8u9gf3c5knzfcblhw","conditionNumber":1},{"rt":5289,"responses":"{\"Q0\":\"pint\"}","trial_type":"survey-text","trial_index":10,"time_elapsed":90504,"internal_node_id":"0.0-3.0-7.0","responseType":"finish","participantID":"x7944w61xsugz6v8u9gf3c5knzfcblhw","conditionNumber":1},{"rt":2037,"stimulus":"\u003cblockquote\u003e\n  \u003cp\u003eNow the next anagram will be shown to you. \u003cbr\u003e\u003cbr\u003e Press 'v' to view the next anagram.\u003c/p\u003e\n\u003c/blockquote\u003e","key_press":86,"trial_type":"html-keyboard-response","trial_index":11,"time_elapsed":92542,"internal_node_id":"0.0-3.0-8.0","responseType":"finish","participantID":"x7944w61xsugz6v8u9gf3c5knzfcblhw","conditionNumber":1},{"rt":5583,"stimulus":"\u003cblockquote\u003e\n  \u003ch1 id=\"srto\"\u003eSRTO\u003c/h1\u003e\n  \u003cp\u003e\u003cbr\u003e\u003cbr\u003e Press 'y' if you have solved the anagram.\u003c/p\u003e\n\u003c/blockquote\u003e","key_press":89,"trial_type":"html-keyboard-response","trial_index":12,"time_elapsed":98127,"internal_node_id":"0.0-3.0-9.0","responseType":"finish","participantID":"x7944w61xsugz6v8u9gf3c5knzfcblhw","conditionNumber":1},{"rt":3439,"responses":"{\"Q0\":\"rots\"}","trial_type":"survey-text","trial_index":13,"time_elapsed":101568,"internal_node_id":"0.0-3.0-10.0","responseType":"finish","participantID":"x7944w61xsugz6v8u9gf3c5knzfcblhw","conditionNumber":1},{"rt":1700,"stimulus":"\u003cblockquote\u003e\n  \u003cp\u003eNow the next anagram will be shown to you. \u003cbr\u003e\u003cbr\u003e Press 'v' to view the next anagram.\u003c/p\u003e\n\u003c/blockquote\u003e","key_press":86,"trial_type":"html-keyboard-response","trial_index":14,"time_elapsed":103269,"internal_node_id":"0.0-3.0-11.0","responseType":"finish","participantID":"x7944w61xsugz6v8u9gf3c5knzfcblhw","conditionNumber":1},{"rt":9814,"stimulus":"\u003cblockquote\u003e\n  \u003ch1 id=\"dleta\"\u003eDLETA\u003c/h1\u003e\n  \u003cp\u003e\u003cbr\u003e\u003cbr\u003e Press 'y' if you have solved the anagram.\u003c/p\u003e\n\u003c/blockquote\u003e","key_press":89,"trial_type":"html-keyboard-response","trial_index":15,"time_elapsed":113086,"internal_node_id":"0.0-3.0-12.0","responseType":"finish","participantID":"x7944w61xsugz6v8u9gf3c5knzfcblhw","conditionNumber":1},{"rt":6768,"responses":"{\"Q0\":\"dealt\"}","trial_type":"survey-text","trial_index":16,"time_elapsed":119856,"internal_node_id":"0.0-3.0-13.0","responseType":"finish","participantID":"x7944w61xsugz6v8u9gf3c5knzfcblhw","conditionNumber":1},{"rt":6383,"responses":"{\"Q0\":6}","trial_type":"survey-likert","trial_index":17,"time_elapsed":126241,"internal_node_id":"0.0-4.0-0.0","responseType":"finish","participantID":"x7944w61xsugz6v8u9gf3c5knzfcblhw","conditionNumber":1},{"rt":3694,"responses":"{\"Q0\":1}","trial_type":"survey-likert","trial_index":18,"time_elapsed":129936,"internal_node_id":"0.0-4.0-0.1","responseType":"finish","participantID":"x7944w61xsugz6v8u9gf3c5knzfcblhw","conditionNumber":1},{"rt":15030,"responses":"{\"Q0\":0}","trial_type":"survey-likert","trial_index":19,"time_elapsed":144968,"internal_node_id":"0.0-4.0-0.2","responseType":"finish","participantID":"x7944w61xsugz6v8u9gf3c5knzfcblhw","conditionNumber":1}],"__v":0}
{"_id":{"$oid":"5c48f3786ccf5a0004f922d0"},"data":{"responseType":"start","participantID":"qqtv0yozoahpbhzrpegw9dgt3pkze831","conditionNumber":0},"__v":0}
{"_id":{"$oid":"5c48f38b6ccf5a0004f922d1"},"data":{"responseType":"start","participantID":"vn0xb0k3070sc43e5c7p12axms9oldne","conditionNumber":0},"__v":0}
{"_id":{"$oid":"5c48f38e6ccf5a0004f922d2"},"data":[{"rt":10833,"responses":"{\"Q0\":\" I consent to participate\"}","trial_type":"survey-multi-choice","trial_index":0,"time_elapsed":10838,"internal_node_id":"0.0-0.0","responseType":"finish","participantID":"l08qwm0c87qpy0a1bgqbj2vcqbs3sgv8","conditionNumber":0},{"trial_type":"call-function","trial_index":1,"time_elapsed":10842,"internal_node_id":"0.0-1.0","responseType":"finish","participantID":"l08qwm0c87qpy0a1bgqbj2vcqbs3sgv8","conditionNumber":0},{"view_history":"[{\"page_index\":0,\"viewing_time\":3603},{\"page_index\":1,\"viewing_time\":4631},{\"page_index\":2,\"viewing_time\":10256}]","rt":18491,"trial_type":"instructions","trial_index":2,"time_elapsed":29333,"internal_node_id":"0.0-2.0","responseType":"finish","participantID":"l08qwm0c87qpy0a1bgqbj2vcqbs3sgv8","conditionNumber":0},{"rt":null,"stimulus":"\u003cblockquote\u003e\n  \u003ch1 id=\"oircnag\"\u003eOIRCNAG\u003c/h1\u003e\n  \u003cp\u003e\u003cbr\u003e\u003cbr\u003e Press 'y' if you have solved the anagram.\u003c/p\u003e\n\u003c/blockquote\u003e","key_press":null,"trial_type":"html-keyboard-response","trial_index":3,"time_elapsed":59337,"internal_node_id":"0.0-3.0-0.0","responseType":"finish","participantID":"l08qwm0c87qpy0a1bgqbj2vcqbs3sgv8","conditionNumber":0},{"rt":7140,"responses":"{\"Q0\":\"\"}","trial_type":"survey-text","trial_index":4,"time_elapsed":66477,"internal_node_id":"0.0-3.0-1.0","responseType":"finish","participantID":"l08qwm0c87qpy0a1bgqbj2vcqbs3sgv8","conditionNumber":0},{"rt":3052,"stimulus":"\u003cblockquote\u003e\n  \u003cp\u003eNow the next anagram will be shown to you. \u003cbr\u003e\u003cbr\u003e Press 'v' to view the next anagram.\u003c/p\u003e\n\u003c/blockquote\u003e","key_press":86,"trial_type":"html-keyboard-response","trial_index":5,"time_elapsed":69530,"internal_node_id":"0.0-3.0-2.0","responseType":"finish","participantID":"l08qwm0c87qpy0a1bgqbj2vcqbs3sgv8","conditionNumber":0},{"rt":null,"stimulus":"\u003cblockquote\u003e\n  \u003ch1 id=\"nhatuyg\"\u003eNHATUYG\u003c/h1\u003e\n  \u003cp\u003e\u003cbr\u003e\u003cbr\u003e Press 'y' if you have solved the anagram.\u003c/p\u003e\n\u003c/blockquote\u003e","key_press":null,"trial_type":"html-keyboard-response","trial_index":6,"time_elapsed":99531,"internal_node_id":"0.0-3.0-3.0","responseType":"finish","participantID":"l08qwm0c87qpy0a1bgqbj2vcqbs3sgv8","conditionNumber":0},{"rt":2633,"responses":"{\"Q0\":\"\"}","trial_type":"survey-text","trial_index":7,"time_elapsed":102165,"internal_node_id":"0.0-3.0-4.0","responseType":"finish","participantID":"l08qwm0c87qpy0a1bgqbj2vcqbs3sgv8","conditionNumber":0},{"rt":1916,"stimulus":"\u003cblockquote\u003e\n  \u003cp\u003eNow the next anagram will be shown to you. \u003cbr\u003e\u003cbr\u003e Press 'v' to view the next anagram.\u003c/p\u003e\n\u003c/blockquote\u003e","key_press":86,"trial_type":"html-keyboard-response","trial_index":8,"time_elapsed":104081,"internal_node_id":"0.0-3.0-5.0","responseType":"finish","participantID":"l08qwm0c87qpy0a1bgqbj2vcqbs3sgv8","conditionNumber":0},{"rt":null,"stimulus":"\u003cblockquote\u003e\n  \u003ch1 id=\"hkaomcm\"\u003eHKAOMCM\u003c/h1\u003e\n  \u003cp\u003e\u003cbr\u003e\u003cbr\u003e Press 'y' if you have solved the anagram.\u003c/p\u003e\n\u003c/blockquote\u003e","key_press":null,"trial_type":"html-keyboard-response","trial_index":9,"time_elapsed":134081,"internal_node_id":"0.0-3.0-6.0","responseType":"finish","participantID":"l08qwm0c87qpy0a1bgqbj2vcqbs3sgv8","conditionNumber":0},{"rt":1938,"responses":"{\"Q0\":\"\"}","trial_type":"survey-text","trial_index":10,"time_elapsed":136021,"internal_node_id":"0.0-3.0-7.0","responseType":"finish","participantID":"l08qwm0c87qpy0a1bgqbj2vcqbs3sgv8","conditionNumber":0},{"rt":2099,"stimulus":"\u003cblockquote\u003e\n  \u003cp\u003eNow the next anagram will be shown to you. \u003cbr\u003e\u003cbr\u003e Press 'v' to view the next anagram.\u003c/p\u003e\n\u003c/blockquote\u003e","key_press":86,"trial_type":"html-keyboard-response","trial_index":11,"time_elapsed":138120,"internal_node_id":"0.0-3.0-8.0","responseType":"finish","participantID":"l08qwm0c87qpy0a1bgqbj2vcqbs3sgv8","conditionNumber":0},{"rt":null,"stimulus":"\u003cblockquote\u003e\n  \u003ch1 id=\"dalrbeu\"\u003eDALRBEU\u003c/h1\u003e\n  \u003cp\u003e\u003cbr\u003e\u003cbr\u003e Press 'y' if you have solved the anagram.\u003c/p\u003e\n\u003c/blockquote\u003e","key_press":null,"trial_type":"html-keyboard-response","trial_index":12,"time_elapsed":168122,"internal_node_id":"0.0-3.0-9.0","responseType":"finish","participantID":"l08qwm0c87qpy0a1bgqbj2vcqbs3sgv8","conditionNumber":0},{"rt":1410,"responses":"{\"Q0\":\"\"}","trial_type":"survey-text","trial_index":13,"time_elapsed":169533,"internal_node_id":"0.0-3.0-10.0","responseType":"finish","participantID":"l08qwm0c87qpy0a1bgqbj2vcqbs3sgv8","conditionNumber":0},{"rt":2891,"stimulus":"\u003cblockquote\u003e\n  \u003cp\u003eNow the next anagram will be shown to you. \u003cbr\u003e\u003cbr\u003e Press 'v' to view the next anagram.\u003c/p\u003e\n\u003c/blockquote\u003e","key_press":86,"trial_type":"html-keyboard-response","trial_index":14,"time_elapsed":172424,"internal_node_id":"0.0-3.0-11.0","responseType":"finish","participantID":"l08qwm0c87qpy0a1bgqbj2vcqbs3sgv8","conditionNumber":0},{"rt":5671,"stimulus":"\u003cblockquote\u003e\n  \u003ch1 id=\"dleta\"\u003eDLETA\u003c/h1\u003e\n  \u003cp\u003e\u003cbr\u003e\u003cbr\u003e Press 'y' if you have solved the anagram.\u003c/p\u003e\n\u003c/blockquote\u003e","key_press":89,"trial_type":"html-keyboard-response","trial_index":15,"time_elapsed":178096,"internal_node_id":"0.0-3.0-12.0","responseType":"finish","participantID":"l08qwm0c87qpy0a1bgqbj2vcqbs3sgv8","conditionNumber":0},{"rt":7091,"responses":"{\"Q0\":\"DELTA\"}","trial_type":"survey-text","trial_index":16,"time_elapsed":185188,"internal_node_id":"0.0-3.0-13.0","responseType":"finish","participantID":"l08qwm0c87qpy0a1bgqbj2vcqbs3sgv8","conditionNumber":0},{"rt":14511,"responses":"{\"Q0\":5}","trial_type":"survey-likert","trial_index":17,"time_elapsed":199702,"internal_node_id":"0.0-4.0-0.0","responseType":"finish","participantID":"l08qwm0c87qpy0a1bgqbj2vcqbs3sgv8","conditionNumber":0},{"rt":3174,"responses":"{\"Q0\":1}","trial_type":"survey-likert","trial_index":18,"time_elapsed":202877,"internal_node_id":"0.0-4.0-0.1","responseType":"finish","participantID":"l08qwm0c87qpy0a1bgqbj2vcqbs3sgv8","conditionNumber":0},{"rt":3622,"responses":"{\"Q0\":6}","trial_type":"survey-likert","trial_index":19,"time_elapsed":206500,"internal_node_id":"0.0-4.0-0.2","responseType":"finish","participantID":"l08qwm0c87qpy0a1bgqbj2vcqbs3sgv8","conditionNumber":0}],"__v":0}
{"_id":{"$oid":"5c48f3b46ccf5a0004f922d3"},"data":{"responseType":"start","participantID":"faf7s0kt5wkk0lr30hb0j21ktlg1729j","conditionNumber":1},"__v":0}
{"_id":{"$oid":"5c48f3b76ccf5a0004f922d4"},"data":{"responseType":"start","participantID":"w4bzqu76vhnolvtbe3f5vxpn2w8m1wh9","conditionNumber":0},"__v":0}
{"_id":{"$oid":"5c48f3bc6ccf5a0004f922d5"},"data":[{"rt":14515,"responses":"{\"Q0\":\" I consent to participate\"}","trial_type":"survey-multi-choice","trial_index":0,"time_elapsed":14539,"internal_node_id":"0.0-0.0","responseType":"finish","participantID":"r1ed9486r5g8kkjt35z9l6drw2oqpr95","conditionNumber":0},{"trial_type":"call-function","trial_index":1,"time_elapsed":14557,"internal_node_id":"0.0-1.0","responseType":"finish","participantID":"r1ed9486r5g8kkjt35z9l6drw2oqpr95","conditionNumber":0},{"view_history":"[{\"page_index\":0,\"viewing_time\":4249},{\"page_index\":1,\"viewing_time\":7591},{\"page_index\":2,\"viewing_time\":11643}]","rt":23487,"trial_type":"instructions","trial_index":2,"time_elapsed":38046,"internal_node_id":"0.0-2.0","responseType":"finish","participantID":"r1ed9486r5g8kkjt35z9l6drw2oqpr95","conditionNumber":0},{"rt":null,"stimulus":"\u003cblockquote\u003e\n  \u003ch1 id=\"oircnag\"\u003eOIRCNAG\u003c/h1\u003e\n  \u003cp\u003e\u003cbr\u003e\u003cbr\u003e Press 'y' if you have solved the anagram.\u003c/p\u003e\n\u003c/blockquote\u003e","key_press":null,"trial_type":"html-keyboard-response","trial_index":3,"time_elapsed":69155,"internal_node_id":"0.0-3.0-0.0","responseType":"finish","participantID":"r1ed9486r5g8kkjt35z9l6drw2oqpr95","conditionNumber":0},{"rt":18977,"responses":"{\"Q0\":\"organic\"}","trial_type":"survey-text","trial_index":4,"time_elapsed":88147,"internal_node_id":"0.0-3.0-1.0","responseType":"finish","participantID":"r1ed9486r5g8kkjt35z9l6drw2oqpr95","conditionNumber":0},{"rt":4209,"stimulus":"\u003cblockquote\u003e\n  \u003cp\u003eNow the next anagram will be shown to you. \u003cbr\u003e\u003cbr\u003e Press 'v' to view the next anagram.\u003c/p\u003e\n\u003c/blockquote\u003e","key_press":86,"trial_type":"html-keyboard-response","trial_index":5,"time_elapsed":92359,"internal_node_id":"0.0-3.0-2.0","responseType":"finish","participantID":"r1ed9486r5g8kkjt35z9l6drw2oqpr95","conditionNumber":0},{"rt":21701,"stimulus":"\u003cblockquote\u003e\n  \u003ch1 id=\"nhatuyg\"\u003eNHATUYG\u003c/h1\u003e\n  \u003cp\u003e\u003cbr\u003e\u003cbr\u003e Press 'y' if you have solved the anagram.\u003c/p\u003e\n\u003c/blockquote\u003e","key_press":89,"trial_type":"html-keyboard-response","trial_index":6,"time_elapsed":114063,"internal_node_id":"0.0-3.0-3.0","responseType":"finish","participantID":"r1ed9486r5g8kkjt35z9l6drw2oqpr95","conditionNumber":0},{"rt":5028,"responses":"{\"Q0\":\"naughty\"}","trial_type":"survey-text","trial_index":7,"time_elapsed":119094,"internal_node_id":"0.0-3.0-4.0","responseType":"finish","participantID":"r1ed9486r5g8kkjt35z9l6drw2oqpr95","conditionNumber":0},{"rt":1818,"stimulus":"\u003cblockquote\u003e\n  \u003cp\u003eNow the next anagram will be shown to you. \u003cbr\u003e\u003cbr\u003e Press 'v' to view the next anagram.\u003c/p\u003e\n\u003c/blockquote\u003e","key_press":86,"trial_type":"html-keyboard-response","trial_index":8,"time_elapsed":120912,"internal_node_id":"0.0-3.0-5.0","responseType":"finish","participantID":"r1ed9486r5g8kkjt35z9l6drw2oqpr95","conditionNumber":0},{"rt":21685,"stimulus":"\u003cblockquote\u003e\n  \u003ch1 id=\"hkaomcm\"\u003eHKAOMCM\u003c/h1\u003e\n  \u003cp\u003e\u003cbr\u003e\u003cbr\u003e Press 'y' if you have solved the anagram.\u003c/p\u003e\n\u003c/blockquote\u003e","key_press":89,"trial_type":"html-keyboard-response","trial_index":9,"time_elapsed":142598,"internal_node_id":"0.0-3.0-6.0","responseType":"finish","participantID":"r1ed9486r5g8kkjt35z9l6drw2oqpr95","conditionNumber":0},{"rt":7019,"responses":"{\"Q0\":\"hammock\"}","trial_type":"survey-text","trial_index":10,"time_elapsed":149619,"internal_node_id":"0.0-3.0-7.0","responseType":"finish","participantID":"r1ed9486r5g8kkjt35z9l6drw2oqpr95","conditionNumber":0},{"rt":1530,"stimulus":"\u003cblockquote\u003e\n  \u003cp\u003eNow the next anagram will be shown to you. \u003cbr\u003e\u003cbr\u003e Press 'v' to view the next anagram.\u003c/p\u003e\n\u003c/blockquote\u003e","key_press":86,"trial_type":"html-keyboard-response","trial_index":11,"time_elapsed":151150,"internal_node_id":"0.0-3.0-8.0","responseType":"finish","participantID":"r1ed9486r5g8kkjt35z9l6drw2oqpr95","conditionNumber":0},{"rt":null,"stimulus":"\u003cblockquote\u003e\n  \u003ch1 id=\"dalrbeu\"\u003eDALRBEU\u003c/h1\u003e\n  \u003cp\u003e\u003cbr\u003e\u003cbr\u003e Press 'y' if you have solved the anagram.\u003c/p\u003e\n\u003c/blockquote\u003e","key_press":null,"trial_type":"html-keyboard-response","trial_index":12,"time_elapsed":181906,"internal_node_id":"0.0-3.0-9.0","responseType":"finish","participantID":"r1ed9486r5g8kkjt35z9l6drw2oqpr95","conditionNumber":0},{"rt":5220,"responses":"{\"Q0\":\"durable\"}","trial_type":"survey-text","trial_index":13,"time_elapsed":187128,"internal_node_id":"0.0-3.0-10.0","responseType":"finish","participantID":"r1ed9486r5g8kkjt35z9l6drw2oqpr95","conditionNumber":0},{"rt":1507,"stimulus":"\u003cblockquote\u003e\n  \u003cp\u003eNow the next anagram will be shown to you. \u003cbr\u003e\u003cbr\u003e Press 'v' to view the next anagram.\u003c/p\u003e\n\u003c/blockquote\u003e","key_press":86,"trial_type":"html-keyboard-response","trial_index":14,"time_elapsed":188638,"internal_node_id":"0.0-3.0-11.0","responseType":"finish","participantID":"r1ed9486r5g8kkjt35z9l6drw2oqpr95","conditionNumber":0},{"rt":3727,"stimulus":"\u003cblockquote\u003e\n  \u003ch1 id=\"dleta\"\u003eDLETA\u003c/h1\u003e\n  \u003cp\u003e\u003cbr\u003e\u003cbr\u003e Press 'y' if you have solved the anagram.\u003c/p\u003e\n\u003c/blockquote\u003e","key_press":89,"trial_type":"html-keyboard-response","trial_index":15,"time_elapsed":192367,"internal_node_id":"0.0-3.0-12.0","responseType":"finish","participantID":"r1ed9486r5g8kkjt35z9l6drw2oqpr95","conditionNumber":0},{"rt":2975,"responses":"{\"Q0\":\"delta\"}","trial_type":"survey-text","trial_index":16,"time_elapsed":195346,"internal_node_id":"0.0-3.0-13.0","responseType":"finish","participantID":"r1ed9486r5g8kkjt35z9l6drw2oqpr95","conditionNumber":0},{"rt":3636,"responses":"{\"Q0\":1}","trial_type":"survey-likert","trial_index":17,"time_elapsed":198989,"internal_node_id":"0.0-4.0-0.0","responseType":"finish","participantID":"r1ed9486r5g8kkjt35z9l6drw2oqpr95","conditionNumber":0},{"rt":14371,"responses":"{\"Q0\":5}","trial_type":"survey-likert","trial_index":18,"time_elapsed":213367,"internal_node_id":"0.0-4.0-0.1","responseType":"finish","participantID":"r1ed9486r5g8kkjt35z9l6drw2oqpr95","conditionNumber":0},{"rt":4554,"responses":"{\"Q0\":5}","trial_type":"survey-likert","trial_index":19,"time_elapsed":217926,"internal_node_id":"0.0-4.0-0.2","responseType":"finish","participantID":"r1ed9486r5g8kkjt35z9l6drw2oqpr95","conditionNumber":0}],"__v":0}
{"_id":{"$oid":"5c48f3cb6ccf5a0004f922d6"},"data":[{"rt":2685,"responses":"{\"Q0\":\" I consent to participate\"}","trial_type":"survey-multi-choice","trial_index":0,"time_elapsed":2687,"internal_node_id":"0.0-0.0","responseType":"finish","participantID":"1jx8cjvmrw0zknnrwqzc5cgwf3nro4hs","conditionNumber":1},{"trial_type":"call-function","trial_index":1,"time_elapsed":2690,"internal_node_id":"0.0-1.0","responseType":"finish","participantID":"1jx8cjvmrw0zknnrwqzc5cgwf3nro4hs","conditionNumber":1},{"view_history":"[{\"page_index\":0,\"viewing_time\":4916},{\"page_index\":1,\"viewing_time\":2424},{\"page_index\":2,\"viewing_time\":9832}]","rt":17172,"trial_type":"instructions","trial_index":2,"time_elapsed":19862,"internal_node_id":"0.0-2.0","responseType":"finish","participantID":"1jx8cjvmrw0zknnrwqzc5cgwf3nro4hs","conditionNumber":1},{"rt":6288,"stimulus":"\u003cblockquote\u003e\n  \u003ch1 id=\"orod\"\u003eOROD\u003c/h1\u003e\n  \u003cp\u003e\u003cbr\u003e\u003cbr\u003e Press 'y' if you have solved the anagram.\u003c/p\u003e\n\u003c/blockquote\u003e","key_press":89,"trial_type":"html-keyboard-response","trial_index":3,"time_elapsed":26150,"internal_node_id":"0.0-3.0-0.0","responseType":"finish","participantID":"1jx8cjvmrw0zknnrwqzc5cgwf3nro4hs","conditionNumber":1},{"rt":4688,"responses":"{\"Q0\":\"door\"}","trial_type":"survey-text","trial_index":4,"time_elapsed":30839,"internal_node_id":"0.0-3.0-1.0","responseType":"finish","participantID":"1jx8cjvmrw0zknnrwqzc5cgwf3nro4hs","conditionNumber":1},{"rt":2114,"stimulus":"\u003cblockquote\u003e\n  \u003cp\u003eNow the next anagram will be shown to you. \u003cbr\u003e\u003cbr\u003e Press 'v' to view the next anagram.\u003c/p\u003e\n\u003c/blockquote\u003e","key_press":86,"trial_type":"html-keyboard-response","trial_index":5,"time_elapsed":32953,"internal_node_id":"0.0-3.0-2.0","responseType":"finish","participantID":"1jx8cjvmrw0zknnrwqzc5cgwf3nro4hs","conditionNumber":1},{"rt":5599,"stimulus":"\u003cblockquote\u003e\n  \u003ch1 id=\"bluk\"\u003eBLUK\u003c/h1\u003e\n  \u003cp\u003e\u003cbr\u003e\u003cbr\u003e Press 'y' if you have solved the anagram.\u003c/p\u003e\n\u003c/blockquote\u003e","key_press":89,"trial_type":"html-keyboard-response","trial_index":6,"time_elapsed":38553,"internal_node_id":"0.0-3.0-3.0","responseType":"finish","participantID":"1jx8cjvmrw0zknnrwqzc5cgwf3nro4hs","conditionNumber":1},{"rt":4205,"responses":"{\"Q0\":\"bulk\"}","trial_type":"survey-text","trial_index":7,"time_elapsed":42758,"internal_node_id":"0.0-3.0-4.0","responseType":"finish","participantID":"1jx8cjvmrw0zknnrwqzc5cgwf3nro4hs","conditionNumber":1},{"rt":2400,"stimulus":"\u003cblockquote\u003e\n  \u003cp\u003eNow the next anagram will be shown to you. \u003cbr\u003e\u003cbr\u003e Press 'v' to view the next anagram.\u003c/p\u003e\n\u003c/blockquote\u003e","key_press":86,"trial_type":"html-keyboard-response","trial_index":8,"time_elapsed":45159,"internal_node_id":"0.0-3.0-5.0","responseType":"finish","participantID":"1jx8cjvmrw0zknnrwqzc5cgwf3nro4hs","conditionNumber":1},{"rt":4446,"stimulus":"\u003cblockquote\u003e\n  \u003ch1 id=\"pitn\"\u003ePITN\u003c/h1\u003e\n  \u003cp\u003e\u003cbr\u003e\u003cbr\u003e Press 'y' if you have solved the anagram.\u003c/p\u003e\n\u003c/blockquote\u003e","key_press":89,"trial_type":"html-keyboard-response","trial_index":9,"time_elapsed":49605,"internal_node_id":"0.0-3.0-6.0","responseType":"finish","participantID":"1jx8cjvmrw0zknnrwqzc5cgwf3nro4hs","conditionNumber":1},{"rt":3744,"responses":"{\"Q0\":\"pint\"}","trial_type":"survey-text","trial_index":10,"time_elapsed":53350,"internal_node_id":"0.0-3.0-7.0","responseType":"finish","participantID":"1jx8cjvmrw0zknnrwqzc5cgwf3nro4hs","conditionNumber":1},{"rt":1073,"stimulus":"\u003cblockquote\u003e\n  \u003cp\u003eNow the next anagram will be shown to you. \u003cbr\u003e\u003cbr\u003e Press 'v' to view the next anagram.\u003c/p\u003e\n\u003c/blockquote\u003e","key_press":86,"trial_type":"html-keyboard-response","trial_index":11,"time_elapsed":54424,"internal_node_id":"0.0-3.0-8.0","responseType":"finish","participantID":"1jx8cjvmrw0zknnrwqzc5cgwf3nro4hs","conditionNumber":1},{"rt":9246,"stimulus":"\u003cblockquote\u003e\n  \u003ch1 id=\"srto\"\u003eSRTO\u003c/h1\u003e\n  \u003cp\u003e\u003cbr\u003e\u003cbr\u003e Press 'y' if you have solved the anagram.\u003c/p\u003e\n\u003c/blockquote\u003e","key_press":89,"trial_type":"html-keyboard-response","trial_index":12,"time_elapsed":63673,"internal_node_id":"0.0-3.0-9.0","responseType":"finish","participantID":"1jx8cjvmrw0zknnrwqzc5cgwf3nro4hs","conditionNumber":1},{"rt":2459,"responses":"{\"Q0\":\"rots\"}","trial_type":"survey-text","trial_index":13,"time_elapsed":66134,"internal_node_id":"0.0-3.0-10.0","responseType":"finish","participantID":"1jx8cjvmrw0zknnrwqzc5cgwf3nro4hs","conditionNumber":1},{"rt":657,"stimulus":"\u003cblockquote\u003e\n  \u003cp\u003eNow the next anagram will be shown to you. \u003cbr\u003e\u003cbr\u003e Press 'v' to view the next anagram.\u003c/p\u003e\n\u003c/blockquote\u003e","key_press":86,"trial_type":"html-keyboard-response","trial_index":14,"time_elapsed":66791,"internal_node_id":"0.0-3.0-11.0","responseType":"finish","participantID":"1jx8cjvmrw0zknnrwqzc5cgwf3nro4hs","conditionNumber":1},{"rt":7008,"stimulus":"\u003cblockquote\u003e\n  \u003ch1 id=\"dleta\"\u003eDLETA\u003c/h1\u003e\n  \u003cp\u003e\u003cbr\u003e\u003cbr\u003e Press 'y' if you have solved the anagram.\u003c/p\u003e\n\u003c/blockquote\u003e","key_press":89,"trial_type":"html-keyboard-response","trial_index":15,"time_elapsed":73799,"internal_node_id":"0.0-3.0-12.0","responseType":"finish","participantID":"1jx8cjvmrw0zknnrwqzc5cgwf3nro4hs","conditionNumber":1},{"rt":5174,"responses":"{\"Q0\":\"delta\"}","trial_type":"survey-text","trial_index":16,"time_elapsed":78974,"internal_node_id":"0.0-3.0-13.0","responseType":"finish","participantID":"1jx8cjvmrw0zknnrwqzc5cgwf3nro4hs","conditionNumber":1},{"rt":3512,"responses":"{\"Q0\":1}","trial_type":"survey-likert","trial_index":17,"time_elapsed":82487,"internal_node_id":"0.0-4.0-0.0","responseType":"finish","participantID":"1jx8cjvmrw0zknnrwqzc5cgwf3nro4hs","conditionNumber":1},{"rt":2150,"responses":"{\"Q0\":6}","trial_type":"survey-likert","trial_index":18,"time_elapsed":84638,"internal_node_id":"0.0-4.0-0.1","responseType":"finish","participantID":"1jx8cjvmrw0zknnrwqzc5cgwf3nro4hs","conditionNumber":1},{"rt":5519,"responses":"{\"Q0\":3}","trial_type":"survey-likert","trial_index":19,"time_elapsed":90158,"internal_node_id":"0.0-4.0-0.2","responseType":"finish","participantID":"1jx8cjvmrw0zknnrwqzc5cgwf3nro4hs","conditionNumber":1}],"__v":0}
{"_id":{"$oid":"5c48f3e16ccf5a0004f922d7"},"data":[{"rt":5002,"responses":"{\"Q0\":\" I consent to participate\"}","trial_type":"survey-multi-choice","trial_index":0,"time_elapsed":5005,"internal_node_id":"0.0-0.0","responseType":"finish","participantID":"zltggur6bukmj4652y0s3b2cafhwck7o","conditionNumber":1},{"trial_type":"call-function","trial_index":1,"time_elapsed":5008,"internal_node_id":"0.0-1.0","responseType":"finish","participantID":"zltggur6bukmj4652y0s3b2cafhwck7o","conditionNumber":1},{"view_history":"[{\"page_index\":0,\"viewing_time\":7821},{\"page_index\":1,\"viewing_time\":6900},{\"page_index\":2,\"viewing_time\":16359}]","rt":31080,"trial_type":"instructions","trial_index":2,"time_elapsed":36088,"internal_node_id":"0.0-2.0","responseType":"finish","participantID":"zltggur6bukmj4652y0s3b2cafhwck7o","conditionNumber":1},{"rt":4099,"stimulus":"\u003cblockquote\u003e\n  \u003ch1 id=\"orod\"\u003eOROD\u003c/h1\u003e\n  \u003cp\u003e\u003cbr\u003e\u003cbr\u003e Press 'y' if you have solved the anagram.\u003c/p\u003e\n\u003c/blockquote\u003e","key_press":89,"trial_type":"html-keyboard-response","trial_index":3,"time_elapsed":40188,"internal_node_id":"0.0-3.0-0.0","responseType":"finish","participantID":"zltggur6bukmj4652y0s3b2cafhwck7o","conditionNumber":1},{"rt":11495,"responses":"{\"Q0\":\"DOOR\"}","trial_type":"survey-text","trial_index":4,"time_elapsed":51685,"internal_node_id":"0.0-3.0-1.0","responseType":"finish","participantID":"zltggur6bukmj4652y0s3b2cafhwck7o","conditionNumber":1},{"rt":2853,"stimulus":"\u003cblockquote\u003e\n  \u003cp\u003eNow the next anagram will be shown to you. \u003cbr\u003e\u003cbr\u003e Press 'v' to view the next anagram.\u003c/p\u003e\n\u003c/blockquote\u003e","key_press":86,"trial_type":"html-keyboard-response","trial_index":5,"time_elapsed":54538,"internal_node_id":"0.0-3.0-2.0","responseType":"finish","participantID":"zltggur6bukmj4652y0s3b2cafhwck7o","conditionNumber":1},{"rt":16471,"stimulus":"\u003cblockquote\u003e\n  \u003ch1 id=\"bluk\"\u003eBLUK\u003c/h1\u003e\n  \u003cp\u003e\u003cbr\u003e\u003cbr\u003e Press 'y' if you have solved the anagram.\u003c/p\u003e\n\u003c/blockquote\u003e","key_press":89,"trial_type":"html-keyboard-response","trial_index":6,"time_elapsed":71009,"internal_node_id":"0.0-3.0-3.0","responseType":"finish","participantID":"zltggur6bukmj4652y0s3b2cafhwck7o","conditionNumber":1},{"rt":7279,"responses":"{\"Q0\":\"BULK\"}","trial_type":"survey-text","trial_index":7,"time_elapsed":78289,"internal_node_id":"0.0-3.0-4.0","responseType":"finish","participantID":"zltggur6bukmj4652y0s3b2cafhwck7o","conditionNumber":1},{"rt":1722,"stimulus":"\u003cblockquote\u003e\n  \u003cp\u003eNow the next anagram will be shown to you. \u003cbr\u003e\u003cbr\u003e Press 'v' to view the next anagram.\u003c/p\u003e\n\u003c/blockquote\u003e","key_press":86,"trial_type":"html-keyboard-response","trial_index":8,"time_elapsed":80012,"internal_node_id":"0.0-3.0-5.0","responseType":"finish","participantID":"zltggur6bukmj4652y0s3b2cafhwck7o","conditionNumber":1},{"rt":16690,"stimulus":"\u003cblockquote\u003e\n  \u003ch1 id=\"pitn\"\u003ePITN\u003c/h1\u003e\n  \u003cp\u003e\u003cbr\u003e\u003cbr\u003e Press 'y' if you have solved the anagram.\u003c/p\u003e\n\u003c/blockquote\u003e","key_press":89,"trial_type":"html-keyboard-response","trial_index":9,"time_elapsed":96703,"internal_node_id":"0.0-3.0-6.0","responseType":"finish","participantID":"zltggur6bukmj4652y0s3b2cafhwck7o","conditionNumber":1},{"rt":7878,"responses":"{\"Q0\":\"PINT\"}","trial_type":"survey-text","trial_index":10,"time_elapsed":104582,"internal_node_id":"0.0-3.0-7.0","responseType":"finish","participantID":"zltggur6bukmj4652y0s3b2cafhwck7o","conditionNumber":1},{"rt":1390,"stimulus":"\u003cblockquote\u003e\n  \u003cp\u003eNow the next anagram will be shown to you. \u003cbr\u003e\u003cbr\u003e Press 'v' to view the next anagram.\u003c/p\u003e\n\u003c/blockquote\u003e","key_press":86,"trial_type":"html-keyboard-response","trial_index":11,"time_elapsed":105972,"internal_node_id":"0.0-3.0-8.0","responseType":"finish","participantID":"zltggur6bukmj4652y0s3b2cafhwck7o","conditionNumber":1},{"rt":21914,"stimulus":"\u003cblockquote\u003e\n  \u003ch1 id=\"srto\"\u003eSRTO\u003c/h1\u003e\n  \u003cp\u003e\u003cbr\u003e\u003cbr\u003e Press 'y' if you have solved the anagram.\u003c/p\u003e\n\u003c/blockquote\u003e","key_press":89,"trial_type":"html-keyboard-response","trial_index":12,"time_elapsed":127886,"internal_node_id":"0.0-3.0-9.0","responseType":"finish","participantID":"zltggur6bukmj4652y0s3b2cafhwck7o","conditionNumber":1},{"rt":11475,"responses":"{\"Q0\":\"SORT\"}","trial_type":"survey-text","trial_index":13,"time_elapsed":139362,"internal_node_id":"0.0-3.0-10.0","responseType":"finish","participantID":"zltggur6bukmj4652y0s3b2cafhwck7o","conditionNumber":1},{"rt":1440,"stimulus":"\u003cblockquote\u003e\n  \u003cp\u003eNow the next anagram will be shown to you. \u003cbr\u003e\u003cbr\u003e Press 'v' to view the next anagram.\u003c/p\u003e\n\u003c/blockquote\u003e","key_press":86,"trial_type":"html-keyboard-response","trial_index":14,"time_elapsed":140802,"internal_node_id":"0.0-3.0-11.0","responseType":"finish","participantID":"zltggur6bukmj4652y0s3b2cafhwck7o","conditionNumber":1},{"rt":5353,"stimulus":"\u003cblockquote\u003e\n  \u003ch1 id=\"dleta\"\u003eDLETA\u003c/h1\u003e\n  \u003cp\u003e\u003cbr\u003e\u003cbr\u003e Press 'y' if you have solved the anagram.\u003c/p\u003e\n\u003c/blockquote\u003e","key_press":89,"trial_type":"html-keyboard-response","trial_index":15,"time_elapsed":146156,"internal_node_id":"0.0-3.0-12.0","responseType":"finish","participantID":"zltggur6bukmj4652y0s3b2cafhwck7o","conditionNumber":1},{"rt":6871,"responses":"{\"Q0\":\"DELTA\"}","trial_type":"survey-text","trial_index":16,"time_elapsed":153027,"internal_node_id":"0.0-3.0-13.0","responseType":"finish","participantID":"zltggur6bukmj4652y0s3b2cafhwck7o","conditionNumber":1},{"rt":19166,"responses":"{\"Q0\":1}","trial_type":"survey-likert","trial_index":17,"time_elapsed":172193,"internal_node_id":"0.0-4.0-0.0","responseType":"finish","participantID":"zltggur6bukmj4652y0s3b2cafhwck7o","conditionNumber":1},{"rt":4394,"responses":"{\"Q0\":1}","trial_type":"survey-likert","trial_index":18,"time_elapsed":176588,"internal_node_id":"0.0-4.0-0.1","responseType":"finish","participantID":"zltggur6bukmj4652y0s3b2cafhwck7o","conditionNumber":1},{"rt":8657,"responses":"{\"Q0\":4}","trial_type":"survey-likert","trial_index":19,"time_elapsed":185245,"internal_node_id":"0.0-4.0-0.2","responseType":"finish","participantID":"zltggur6bukmj4652y0s3b2cafhwck7o","conditionNumber":1}],"__v":0}
{"_id":{"$oid":"5c48f4366ccf5a0004f922d8"},"data":{"responseType":"start","participantID":"dh8482093lydsvvb19sw2ld84y89twkh","conditionNumber":0},"__v":0}
{"_id":{"$oid":"5c48f45b6ccf5a0004f922d9"},"data":[{"rt":38486,"responses":"{\"Q0\":\" I consent to participate\"}","trial_type":"survey-multi-choice","trial_index":0,"time_elapsed":38490,"internal_node_id":"0.0-0.0","responseType":"finish","participantID":"vn0xb0k3070sc43e5c7p12axms9oldne","conditionNumber":0},{"trial_type":"call-function","trial_index":1,"time_elapsed":38495,"internal_node_id":"0.0-1.0","responseType":"finish","participantID":"vn0xb0k3070sc43e5c7p12axms9oldne","conditionNumber":0},{"view_history":"[{\"page_index\":0,\"viewing_time\":53081},{\"page_index\":1,\"viewing_time\":5839},{\"page_index\":2,\"viewing_time\":15192}]","rt":74112,"trial_type":"instructions","trial_index":2,"time_elapsed":112608,"internal_node_id":"0.0-2.0","responseType":"finish","participantID":"vn0xb0k3070sc43e5c7p12axms9oldne","conditionNumber":0},{"rt":1992,"stimulus":"\u003cblockquote\u003e\n  \u003ch1 id=\"oircnag\"\u003eOIRCNAG\u003c/h1\u003e\n  \u003cp\u003e\u003cbr\u003e\u003cbr\u003e Press 'y' if you have solved the anagram.\u003c/p\u003e\n\u003c/blockquote\u003e","key_press":89,"trial_type":"html-keyboard-response","trial_index":3,"time_elapsed":114601,"internal_node_id":"0.0-3.0-0.0","responseType":"finish","participantID":"vn0xb0k3070sc43e5c7p12axms9oldne","conditionNumber":0},{"rt":7295,"responses":"{\"Q0\":\"organic\"}","trial_type":"survey-text","trial_index":4,"time_elapsed":121897,"internal_node_id":"0.0-3.0-1.0","responseType":"finish","participantID":"vn0xb0k3070sc43e5c7p12axms9oldne","conditionNumber":0},{"rt":4263,"stimulus":"\u003cblockquote\u003e\n  \u003cp\u003eNow the next anagram will be shown to you. \u003cbr\u003e\u003cbr\u003e Press 'v' to view the next anagram.\u003c/p\u003e\n\u003c/blockquote\u003e","key_press":86,"trial_type":"html-keyboard-response","trial_index":5,"time_elapsed":126161,"internal_node_id":"0.0-3.0-2.0","responseType":"finish","participantID":"vn0xb0k3070sc43e5c7p12axms9oldne","conditionNumber":0},{"rt":18952,"stimulus":"\u003cblockquote\u003e\n  \u003ch1 id=\"nhatuyg\"\u003eNHATUYG\u003c/h1\u003e\n  \u003cp\u003e\u003cbr\u003e\u003cbr\u003e Press 'y' if you have solved the anagram.\u003c/p\u003e\n\u003c/blockquote\u003e","key_press":89,"trial_type":"html-keyboard-response","trial_index":6,"time_elapsed":145113,"internal_node_id":"0.0-3.0-3.0","responseType":"finish","participantID":"vn0xb0k3070sc43e5c7p12axms9oldne","conditionNumber":0},{"rt":7664,"responses":"{\"Q0\":\"ghaunty\"}","trial_type":"survey-text","trial_index":7,"time_elapsed":152777,"internal_node_id":"0.0-3.0-4.0","responseType":"finish","participantID":"vn0xb0k3070sc43e5c7p12axms9oldne","conditionNumber":0},{"rt":1702,"stimulus":"\u003cblockquote\u003e\n  \u003cp\u003eNow the next anagram will be shown to you. \u003cbr\u003e\u003cbr\u003e Press 'v' to view the next anagram.\u003c/p\u003e\n\u003c/blockquote\u003e","key_press":86,"trial_type":"html-keyboard-response","trial_index":8,"time_elapsed":154481,"internal_node_id":"0.0-3.0-5.0","responseType":"finish","participantID":"vn0xb0k3070sc43e5c7p12axms9oldne","conditionNumber":0},{"rt":4049,"stimulus":"\u003cblockquote\u003e\n  \u003ch1 id=\"hkaomcm\"\u003eHKAOMCM\u003c/h1\u003e\n  \u003cp\u003e\u003cbr\u003e\u003cbr\u003e Press 'y' if you have solved the anagram.\u003c/p\u003e\n\u003c/blockquote\u003e","key_press":89,"trial_type":"html-keyboard-response","trial_index":9,"time_elapsed":158531,"internal_node_id":"0.0-3.0-6.0","responseType":"finish","participantID":"vn0xb0k3070sc43e5c7p12axms9oldne","conditionNumber":0},{"rt":4973,"responses":"{\"Q0\":\"hammock\"}","trial_type":"survey-text","trial_index":10,"time_elapsed":163505,"internal_node_id":"0.0-3.0-7.0","responseType":"finish","participantID":"vn0xb0k3070sc43e5c7p12axms9oldne","conditionNumber":0},{"rt":1358,"stimulus":"\u003cblockquote\u003e\n  \u003cp\u003eNow the next anagram will be shown to you. \u003cbr\u003e\u003cbr\u003e Press 'v' to view the next anagram.\u003c/p\u003e\n\u003c/blockquote\u003e","key_press":86,"trial_type":"html-keyboard-response","trial_index":11,"time_elapsed":164865,"internal_node_id":"0.0-3.0-8.0","responseType":"finish","participantID":"vn0xb0k3070sc43e5c7p12axms9oldne","conditionNumber":0},{"rt":null,"stimulus":"\u003cblockquote\u003e\n  \u003ch1 id=\"dalrbeu\"\u003eDALRBEU\u003c/h1\u003e\n  \u003cp\u003e\u003cbr\u003e\u003cbr\u003e Press 'y' if you have solved the anagram.\u003c/p\u003e\n\u003c/blockquote\u003e","key_press":null,"trial_type":"html-keyboard-response","trial_index":12,"time_elapsed":194867,"internal_node_id":"0.0-3.0-9.0","responseType":"finish","participantID":"vn0xb0k3070sc43e5c7p12axms9oldne","conditionNumber":0},{"rt":3157,"responses":"{\"Q0\":\"\"}","trial_type":"survey-text","trial_index":13,"time_elapsed":198025,"internal_node_id":"0.0-3.0-10.0","responseType":"finish","participantID":"vn0xb0k3070sc43e5c7p12axms9oldne","conditionNumber":0},{"rt":1407,"stimulus":"\u003cblockquote\u003e\n  \u003cp\u003eNow the next anagram will be shown to you. \u003cbr\u003e\u003cbr\u003e Press 'v' to view the next anagram.\u003c/p\u003e\n\u003c/blockquote\u003e","key_press":86,"trial_type":"html-keyboard-response","trial_index":14,"time_elapsed":199433,"internal_node_id":"0.0-3.0-11.0","responseType":"finish","participantID":"vn0xb0k3070sc43e5c7p12axms9oldne","conditionNumber":0},{"rt":17048,"stimulus":"\u003cblockquote\u003e\n  \u003ch1 id=\"dleta\"\u003eDLETA\u003c/h1\u003e\n  \u003cp\u003e\u003cbr\u003e\u003cbr\u003e Press 'y' if you have solved the anagram.\u003c/p\u003e\n\u003c/blockquote\u003e","key_press":89,"trial_type":"html-keyboard-response","trial_index":15,"time_elapsed":216481,"internal_node_id":"0.0-3.0-12.0","responseType":"finish","participantID":"vn0xb0k3070sc43e5c7p12axms9oldne","conditionNumber":0},{"rt":5007,"responses":"{\"Q0\":\"taled\"}","trial_type":"survey-text","trial_index":16,"time_elapsed":221489,"internal_node_id":"0.0-3.0-13.0","responseType":"finish","participantID":"vn0xb0k3070sc43e5c7p12axms9oldne","conditionNumber":0},{"rt":5174,"responses":"{\"Q0\":1}","trial_type":"survey-likert","trial_index":17,"time_elapsed":226666,"internal_node_id":"0.0-4.0-0.0","responseType":"finish","participantID":"vn0xb0k3070sc43e5c7p12axms9oldne","conditionNumber":0},{"rt":10316,"responses":"{\"Q0\":4}","trial_type":"survey-likert","trial_index":18,"time_elapsed":236985,"internal_node_id":"0.0-4.0-0.1","responseType":"finish","participantID":"vn0xb0k3070sc43e5c7p12axms9oldne","conditionNumber":0},{"rt":8444,"responses":"{\"Q0\":5}","trial_type":"survey-likert","trial_index":19,"time_elapsed":245433,"internal_node_id":"0.0-4.0-0.2","responseType":"finish","participantID":"vn0xb0k3070sc43e5c7p12axms9oldne","conditionNumber":0}],"__v":0}
{"_id":{"$oid":"5c48f45f6ccf5a0004f922da"},"data":{"responseType":"start","participantID":"ty9fd5na1mvfgzy9rgeyyjar1t2a7eqg","conditionNumber":1},"__v":0}
{"_id":{"$oid":"5c48f4656ccf5a0004f922db"},"data":[{"rt":9370,"responses":"{\"Q0\":\" I consent to participate\"}","trial_type":"survey-multi-choice","trial_index":0,"time_elapsed":9439,"internal_node_id":"0.0-0.0","responseType":"finish","participantID":"koou2d4c3jstkk1r55pemllt7n06oejo","conditionNumber":0},{"trial_type":"call-function","trial_index":1,"time_elapsed":9456,"internal_node_id":"0.0-1.0","responseType":"finish","participantID":"koou2d4c3jstkk1r55pemllt7n06oejo","conditionNumber":0},{"view_history":"[{\"page_index\":0,\"viewing_time\":21026},{\"page_index\":1,\"viewing_time\":5085},{\"page_index\":2,\"viewing_time\":20110}]","rt":46222,"trial_type":"instructions","trial_index":2,"time_elapsed":55679,"internal_node_id":"0.0-2.0","responseType":"finish","participantID":"koou2d4c3jstkk1r55pemllt7n06oejo","conditionNumber":0},{"rt":null,"stimulus":"\u003cblockquote\u003e\n  \u003ch1 id=\"oircnag\"\u003eOIRCNAG\u003c/h1\u003e\n  \u003cp\u003e\u003cbr\u003e\u003cbr\u003e Press 'y' if you have solved the anagram.\u003c/p\u003e\n\u003c/blockquote\u003e","key_press":null,"trial_type":"html-keyboard-response","trial_index":3,"time_elapsed":85684,"internal_node_id":"0.0-3.0-0.0","responseType":"finish","participantID":"koou2d4c3jstkk1r55pemllt7n06oejo","conditionNumber":0},{"rt":6496,"responses":"{\"Q0\":\"\"}","trial_type":"survey-text","trial_index":4,"time_elapsed":92187,"internal_node_id":"0.0-3.0-1.0","responseType":"finish","participantID":"koou2d4c3jstkk1r55pemllt7n06oejo","conditionNumber":0},{"rt":3055,"stimulus":"\u003cblockquote\u003e\n  \u003cp\u003eNow the next anagram will be shown to you. \u003cbr\u003e\u003cbr\u003e Press 'v' to view the next anagram.\u003c/p\u003e\n\u003c/blockquote\u003e","key_press":86,"trial_type":"html-keyboard-response","trial_index":5,"time_elapsed":95246,"internal_node_id":"0.0-3.0-2.0","responseType":"finish","participantID":"koou2d4c3jstkk1r55pemllt7n06oejo","conditionNumber":0},{"rt":null,"stimulus":"\u003cblockquote\u003e\n  \u003ch1 id=\"nhatuyg\"\u003eNHATUYG\u003c/h1\u003e\n  \u003cp\u003e\u003cbr\u003e\u003cbr\u003e Press 'y' if you have solved the anagram.\u003c/p\u003e\n\u003c/blockquote\u003e","key_press":null,"trial_type":"html-keyboard-response","trial_index":6,"time_elapsed":125247,"internal_node_id":"0.0-3.0-3.0","responseType":"finish","participantID":"koou2d4c3jstkk1r55pemllt7n06oejo","conditionNumber":0},{"rt":10400,"responses":"{\"Q0\":\"naughty\"}","trial_type":"survey-text","trial_index":7,"time_elapsed":135649,"internal_node_id":"0.0-3.0-4.0","responseType":"finish","participantID":"koou2d4c3jstkk1r55pemllt7n06oejo","conditionNumber":0},{"rt":3567,"stimulus":"\u003cblockquote\u003e\n  \u003cp\u003eNow the next anagram will be shown to you. \u003cbr\u003e\u003cbr\u003e Press 'v' to view the next anagram.\u003c/p\u003e\n\u003c/blockquote\u003e","key_press":86,"trial_type":"html-keyboard-response","trial_index":8,"time_elapsed":139219,"internal_node_id":"0.0-3.0-5.0","responseType":"finish","participantID":"koou2d4c3jstkk1r55pemllt7n06oejo","conditionNumber":0},{"rt":null,"stimulus":"\u003cblockquote\u003e\n  \u003ch1 id=\"hkaomcm\"\u003eHKAOMCM\u003c/h1\u003e\n  \u003cp\u003e\u003cbr\u003e\u003cbr\u003e Press 'y' if you have solved the anagram.\u003c/p\u003e\n\u003c/blockquote\u003e","key_press":null,"trial_type":"html-keyboard-response","trial_index":9,"time_elapsed":169226,"internal_node_id":"0.0-3.0-6.0","responseType":"finish","participantID":"koou2d4c3jstkk1r55pemllt7n06oejo","conditionNumber":0},{"rt":8109,"responses":"{\"Q0\":\"\"}","trial_type":"survey-text","trial_index":10,"time_elapsed":177336,"internal_node_id":"0.0-3.0-7.0","responseType":"finish","participantID":"koou2d4c3jstkk1r55pemllt7n06oejo","conditionNumber":0},{"rt":1324,"stimulus":"\u003cblockquote\u003e\n  \u003cp\u003eNow the next anagram will be shown to you. \u003cbr\u003e\u003cbr\u003e Press 'v' to view the next anagram.\u003c/p\u003e\n\u003c/blockquote\u003e","key_press":86,"trial_type":"html-keyboard-response","trial_index":11,"time_elapsed":178663,"internal_node_id":"0.0-3.0-8.0","responseType":"finish","participantID":"koou2d4c3jstkk1r55pemllt7n06oejo","conditionNumber":0},{"rt":null,"stimulus":"\u003cblockquote\u003e\n  \u003ch1 id=\"dalrbeu\"\u003eDALRBEU\u003c/h1\u003e\n  \u003cp\u003e\u003cbr\u003e\u003cbr\u003e Press 'y' if you have solved the anagram.\u003c/p\u003e\n\u003c/blockquote\u003e","key_press":null,"trial_type":"html-keyboard-response","trial_index":12,"time_elapsed":208664,"internal_node_id":"0.0-3.0-9.0","responseType":"finish","participantID":"koou2d4c3jstkk1r55pemllt7n06oejo","conditionNumber":0},{"rt":3929,"responses":"{\"Q0\":\"\"}","trial_type":"survey-text","trial_index":13,"time_elapsed":212597,"internal_node_id":"0.0-3.0-10.0","responseType":"finish","participantID":"koou2d4c3jstkk1r55pemllt7n06oejo","conditionNumber":0},{"rt":3703,"stimulus":"\u003cblockquote\u003e\n  \u003cp\u003eNow the next anagram will be shown to you. \u003cbr\u003e\u003cbr\u003e Press 'v' to view the next anagram.\u003c/p\u003e\n\u003c/blockquote\u003e","key_press":86,"trial_type":"html-keyboard-response","trial_index":14,"time_elapsed":216303,"internal_node_id":"0.0-3.0-11.0","responseType":"finish","participantID":"koou2d4c3jstkk1r55pemllt7n06oejo","conditionNumber":0},{"rt":5038,"stimulus":"\u003cblockquote\u003e\n  \u003ch1 id=\"dleta\"\u003eDLETA\u003c/h1\u003e\n  \u003cp\u003e\u003cbr\u003e\u003cbr\u003e Press 'y' if you have solved the anagram.\u003c/p\u003e\n\u003c/blockquote\u003e","key_press":89,"trial_type":"html-keyboard-response","trial_index":15,"time_elapsed":221343,"internal_node_id":"0.0-3.0-12.0","responseType":"finish","participantID":"koou2d4c3jstkk1r55pemllt7n06oejo","conditionNumber":0},{"rt":7077,"responses":"{\"Q0\":\"delta\"}","trial_type":"survey-text","trial_index":16,"time_elapsed":228421,"internal_node_id":"0.0-3.0-13.0","responseType":"finish","participantID":"koou2d4c3jstkk1r55pemllt7n06oejo","conditionNumber":0},{"rt":10390,"responses":"{\"Q0\":4}","trial_type":"survey-likert","trial_index":17,"time_elapsed":238816,"internal_node_id":"0.0-4.0-0.0","responseType":"finish","participantID":"koou2d4c3jstkk1r55pemllt7n06oejo","conditionNumber":0},{"rt":3120,"responses":"{\"Q0\":1}","trial_type":"survey-likert","trial_index":18,"time_elapsed":241948,"internal_node_id":"0.0-4.0-0.1","responseType":"finish","participantID":"koou2d4c3jstkk1r55pemllt7n06oejo","conditionNumber":0},{"rt":12495,"responses":"{\"Q0\":5}","trial_type":"survey-likert","trial_index":19,"time_elapsed":254457,"internal_node_id":"0.0-4.0-0.2","responseType":"finish","participantID":"koou2d4c3jstkk1r55pemllt7n06oejo","conditionNumber":0}],"__v":0}
{"_id":{"$oid":"5c48f4676ccf5a0004f922dc"},"data":[{"rt":9263,"responses":"{\"Q0\":\" I consent to participate\"}","trial_type":"survey-multi-choice","trial_index":0,"time_elapsed":9298,"internal_node_id":"0.0-0.0","responseType":"finish","participantID":"faf7s0kt5wkk0lr30hb0j21ktlg1729j","conditionNumber":1},{"trial_type":"call-function","trial_index":1,"time_elapsed":9305,"internal_node_id":"0.0-1.0","responseType":"finish","participantID":"faf7s0kt5wkk0lr30hb0j21ktlg1729j","conditionNumber":1},{"view_history":"[{\"page_index\":0,\"viewing_time\":5721},{\"page_index\":1,\"viewing_time\":12956},{\"page_index\":2,\"viewing_time\":4190}]","rt":22868,"trial_type":"instructions","trial_index":2,"time_elapsed":32173,"internal_node_id":"0.0-2.0","responseType":"finish","participantID":"faf7s0kt5wkk0lr30hb0j21ktlg1729j","conditionNumber":1},{"rt":15063,"stimulus":"\u003cblockquote\u003e\n  \u003ch1 id=\"orod\"\u003eOROD\u003c/h1\u003e\n  \u003cp\u003e\u003cbr\u003e\u003cbr\u003e Press 'y' if you have solved the anagram.\u003c/p\u003e\n\u003c/blockquote\u003e","key_press":89,"trial_type":"html-keyboard-response","trial_index":3,"time_elapsed":47236,"internal_node_id":"0.0-3.0-0.0","responseType":"finish","participantID":"faf7s0kt5wkk0lr30hb0j21ktlg1729j","conditionNumber":1},{"rt":4696,"responses":"{\"Q0\":\"door\"}","trial_type":"survey-text","trial_index":4,"time_elapsed":51932,"internal_node_id":"0.0-3.0-1.0","responseType":"finish","participantID":"faf7s0kt5wkk0lr30hb0j21ktlg1729j","conditionNumber":1},{"rt":2742,"stimulus":"\u003cblockquote\u003e\n  \u003cp\u003eNow the next anagram will be shown to you. \u003cbr\u003e\u003cbr\u003e Press 'v' to view the next anagram.\u003c/p\u003e\n\u003c/blockquote\u003e","key_press":86,"trial_type":"html-keyboard-response","trial_index":5,"time_elapsed":54675,"internal_node_id":"0.0-3.0-2.0","responseType":"finish","participantID":"faf7s0kt5wkk0lr30hb0j21ktlg1729j","conditionNumber":1},{"rt":27815,"stimulus":"\u003cblockquote\u003e\n  \u003ch1 id=\"bluk\"\u003eBLUK\u003c/h1\u003e\n  \u003cp\u003e\u003cbr\u003e\u003cbr\u003e Press 'y' if you have solved the anagram.\u003c/p\u003e\n\u003c/blockquote\u003e","key_press":89,"trial_type":"html-keyboard-response","trial_index":6,"time_elapsed":82491,"internal_node_id":"0.0-3.0-3.0","responseType":"finish","participantID":"faf7s0kt5wkk0lr30hb0j21ktlg1729j","conditionNumber":1},{"rt":4320,"responses":"{\"Q0\":\"block\"}","trial_type":"survey-text","trial_index":7,"time_elapsed":86811,"internal_node_id":"0.0-3.0-4.0","responseType":"finish","participantID":"faf7s0kt5wkk0lr30hb0j21ktlg1729j","conditionNumber":1},{"rt":1975,"stimulus":"\u003cblockquote\u003e\n  \u003cp\u003eNow the next anagram will be shown to you. \u003cbr\u003e\u003cbr\u003e Press 'v' to view the next anagram.\u003c/p\u003e\n\u003c/blockquote\u003e","key_press":86,"trial_type":"html-keyboard-response","trial_index":8,"time_elapsed":88786,"internal_node_id":"0.0-3.0-5.0","responseType":"finish","participantID":"faf7s0kt5wkk0lr30hb0j21ktlg1729j","conditionNumber":1},{"rt":18239,"stimulus":"\u003cblockquote\u003e\n  \u003ch1 id=\"pitn\"\u003ePITN\u003c/h1\u003e\n  \u003cp\u003e\u003cbr\u003e\u003cbr\u003e Press 'y' if you have solved the anagram.\u003c/p\u003e\n\u003c/blockquote\u003e","key_press":89,"trial_type":"html-keyboard-response","trial_index":9,"time_elapsed":107026,"internal_node_id":"0.0-3.0-6.0","responseType":"finish","participantID":"faf7s0kt5wkk0lr30hb0j21ktlg1729j","conditionNumber":1},{"rt":4020,"responses":"{\"Q0\":\"not sure\"}","trial_type":"survey-text","trial_index":10,"time_elapsed":111047,"internal_node_id":"0.0-3.0-7.0","responseType":"finish","participantID":"faf7s0kt5wkk0lr30hb0j21ktlg1729j","conditionNumber":1},{"rt":1578,"stimulus":"\u003cblockquote\u003e\n  \u003cp\u003eNow the next anagram will be shown to you. \u003cbr\u003e\u003cbr\u003e Press 'v' to view the next anagram.\u003c/p\u003e\n\u003c/blockquote\u003e","key_press":86,"trial_type":"html-keyboard-response","trial_index":11,"time_elapsed":112625,"internal_node_id":"0.0-3.0-8.0","responseType":"finish","participantID":"faf7s0kt5wkk0lr30hb0j21ktlg1729j","conditionNumber":1},{"rt":20687,"stimulus":"\u003cblockquote\u003e\n  \u003ch1 id=\"srto\"\u003eSRTO\u003c/h1\u003e\n  \u003cp\u003e\u003cbr\u003e\u003cbr\u003e Press 'y' if you have solved the anagram.\u003c/p\u003e\n\u003c/blockquote\u003e","key_press":89,"trial_type":"html-keyboard-response","trial_index":12,"time_elapsed":133314,"internal_node_id":"0.0-3.0-9.0","responseType":"finish","participantID":"faf7s0kt5wkk0lr30hb0j21ktlg1729j","conditionNumber":1},{"rt":4907,"responses":"{\"Q0\":\"rots\"}","trial_type":"survey-text","trial_index":13,"time_elapsed":138221,"internal_node_id":"0.0-3.0-10.0","responseType":"finish","participantID":"faf7s0kt5wkk0lr30hb0j21ktlg1729j","conditionNumber":1},{"rt":1339,"stimulus":"\u003cblockquote\u003e\n  \u003cp\u003eNow the next anagram will be shown to you. \u003cbr\u003e\u003cbr\u003e Press 'v' to view the next anagram.\u003c/p\u003e\n\u003c/blockquote\u003e","key_press":86,"trial_type":"html-keyboard-response","trial_index":14,"time_elapsed":139560,"internal_node_id":"0.0-3.0-11.0","responseType":"finish","participantID":"faf7s0kt5wkk0lr30hb0j21ktlg1729j","conditionNumber":1},{"rt":13087,"stimulus":"\u003cblockquote\u003e\n  \u003ch1 id=\"dleta\"\u003eDLETA\u003c/h1\u003e\n  \u003cp\u003e\u003cbr\u003e\u003cbr\u003e Press 'y' if you have solved the anagram.\u003c/p\u003e\n\u003c/blockquote\u003e","key_press":89,"trial_type":"html-keyboard-response","trial_index":15,"time_elapsed":152649,"internal_node_id":"0.0-3.0-12.0","responseType":"finish","participantID":"faf7s0kt5wkk0lr30hb0j21ktlg1729j","conditionNumber":1},{"rt":3397,"responses":"{\"Q0\":\"delta\"}","trial_type":"survey-text","trial_index":16,"time_elapsed":156047,"internal_node_id":"0.0-3.0-13.0","responseType":"finish","participantID":"faf7s0kt5wkk0lr30hb0j21ktlg1729j","conditionNumber":1},{"rt":11662,"responses":"{\"Q0\":4}","trial_type":"survey-likert","trial_index":17,"time_elapsed":167712,"internal_node_id":"0.0-4.0-0.0","responseType":"finish","participantID":"faf7s0kt5wkk0lr30hb0j21ktlg1729j","conditionNumber":1},{"rt":12117,"responses":"{\"Q0\":0}","trial_type":"survey-likert","trial_index":18,"time_elapsed":179834,"internal_node_id":"0.0-4.0-0.1","responseType":"finish","participantID":"faf7s0kt5wkk0lr30hb0j21ktlg1729j","conditionNumber":1},{"rt":8548,"responses":"{\"Q0\":0}","trial_type":"survey-likert","trial_index":19,"time_elapsed":188386,"internal_node_id":"0.0-4.0-0.2","responseType":"finish","participantID":"faf7s0kt5wkk0lr30hb0j21ktlg1729j","conditionNumber":1}],"__v":0}
{"_id":{"$oid":"5c48f4ab6ccf5a0004f922dd"},"data":[{"rt":4680,"responses":"{\"Q0\":\" I consent to participate\"}","trial_type":"survey-multi-choice","trial_index":0,"time_elapsed":4687,"internal_node_id":"0.0-0.0","responseType":"finish","participantID":"ty9fd5na1mvfgzy9rgeyyjar1t2a7eqg","conditionNumber":1},{"trial_type":"call-function","trial_index":1,"time_elapsed":4690,"internal_node_id":"0.0-1.0","responseType":"finish","participantID":"ty9fd5na1mvfgzy9rgeyyjar1t2a7eqg","conditionNumber":1},{"view_history":"[{\"page_index\":0,\"viewing_time\":2851},{\"page_index\":1,\"viewing_time\":4956},{\"page_index\":2,\"viewing_time\":2401}]","rt":10208,"trial_type":"instructions","trial_index":2,"time_elapsed":14898,"internal_node_id":"0.0-2.0","responseType":"finish","participantID":"ty9fd5na1mvfgzy9rgeyyjar1t2a7eqg","conditionNumber":1},{"rt":3461,"stimulus":"\u003cblockquote\u003e\n  \u003ch1 id=\"orod\"\u003eOROD\u003c/h1\u003e\n  \u003cp\u003e\u003cbr\u003e\u003cbr\u003e Press 'y' if you have solved the anagram.\u003c/p\u003e\n\u003c/blockquote\u003e","key_press":89,"trial_type":"html-keyboard-response","trial_index":3,"time_elapsed":18360,"internal_node_id":"0.0-3.0-0.0","responseType":"finish","participantID":"ty9fd5na1mvfgzy9rgeyyjar1t2a7eqg","conditionNumber":1},{"rt":3743,"responses":"{\"Q0\":\"door\"}","trial_type":"survey-text","trial_index":4,"time_elapsed":22105,"internal_node_id":"0.0-3.0-1.0","responseType":"finish","participantID":"ty9fd5na1mvfgzy9rgeyyjar1t2a7eqg","conditionNumber":1},{"rt":2876,"stimulus":"\u003cblockquote\u003e\n  \u003cp\u003eNow the next anagram will be shown to you. \u003cbr\u003e\u003cbr\u003e Press 'v' to view the next anagram.\u003c/p\u003e\n\u003c/blockquote\u003e","key_press":86,"trial_type":"html-keyboard-response","trial_index":5,"time_elapsed":24983,"internal_node_id":"0.0-3.0-2.0","responseType":"finish","participantID":"ty9fd5na1mvfgzy9rgeyyjar1t2a7eqg","conditionNumber":1},{"rt":2035,"stimulus":"\u003cblockquote\u003e\n  \u003ch1 id=\"bluk\"\u003eBLUK\u003c/h1\u003e\n  \u003cp\u003e\u003cbr\u003e\u003cbr\u003e Press 'y' if you have solved the anagram.\u003c/p\u003e\n\u003c/blockquote\u003e","key_press":89,"trial_type":"html-keyboard-response","trial_index":6,"time_elapsed":27020,"internal_node_id":"0.0-3.0-3.0","responseType":"finish","participantID":"ty9fd5na1mvfgzy9rgeyyjar1t2a7eqg","conditionNumber":1},{"rt":4546,"responses":"{\"Q0\":\"bulk\"}","trial_type":"survey-text","trial_index":7,"time_elapsed":31567,"internal_node_id":"0.0-3.0-4.0","responseType":"finish","participantID":"ty9fd5na1mvfgzy9rgeyyjar1t2a7eqg","conditionNumber":1},{"rt":1435,"stimulus":"\u003cblockquote\u003e\n  \u003cp\u003eNow the next anagram will be shown to you. \u003cbr\u003e\u003cbr\u003e Press 'v' to view the next anagram.\u003c/p\u003e\n\u003c/blockquote\u003e","key_press":86,"trial_type":"html-keyboard-response","trial_index":8,"time_elapsed":33002,"internal_node_id":"0.0-3.0-5.0","responseType":"finish","participantID":"ty9fd5na1mvfgzy9rgeyyjar1t2a7eqg","conditionNumber":1},{"rt":3482,"stimulus":"\u003cblockquote\u003e\n  \u003ch1 id=\"pitn\"\u003ePITN\u003c/h1\u003e\n  \u003cp\u003e\u003cbr\u003e\u003cbr\u003e Press 'y' if you have solved the anagram.\u003c/p\u003e\n\u003c/blockquote\u003e","key_press":89,"trial_type":"html-keyboard-response","trial_index":9,"time_elapsed":36486,"internal_node_id":"0.0-3.0-6.0","responseType":"finish","participantID":"ty9fd5na1mvfgzy9rgeyyjar1t2a7eqg","conditionNumber":1},{"rt":3306,"responses":"{\"Q0\":\"pint\"}","trial_type":"survey-text","trial_index":10,"time_elapsed":39793,"internal_node_id":"0.0-3.0-7.0","responseType":"finish","participantID":"ty9fd5na1mvfgzy9rgeyyjar1t2a7eqg","conditionNumber":1},{"rt":1447,"stimulus":"\u003cblockquote\u003e\n  \u003cp\u003eNow the next anagram will be shown to you. \u003cbr\u003e\u003cbr\u003e Press 'v' to view the next anagram.\u003c/p\u003e\n\u003c/blockquote\u003e","key_press":86,"trial_type":"html-keyboard-response","trial_index":11,"time_elapsed":41240,"internal_node_id":"0.0-3.0-8.0","responseType":"finish","participantID":"ty9fd5na1mvfgzy9rgeyyjar1t2a7eqg","conditionNumber":1},{"rt":1671,"stimulus":"\u003cblockquote\u003e\n  \u003ch1 id=\"srto\"\u003eSRTO\u003c/h1\u003e\n  \u003cp\u003e\u003cbr\u003e\u003cbr\u003e Press 'y' if you have solved the anagram.\u003c/p\u003e\n\u003c/blockquote\u003e","key_press":89,"trial_type":"html-keyboard-response","trial_index":12,"time_elapsed":42913,"internal_node_id":"0.0-3.0-9.0","responseType":"finish","participantID":"ty9fd5na1mvfgzy9rgeyyjar1t2a7eqg","conditionNumber":1},{"rt":3155,"responses":"{\"Q0\":\"sort\"}","trial_type":"survey-text","trial_index":13,"time_elapsed":46069,"internal_node_id":"0.0-3.0-10.0","responseType":"finish","participantID":"ty9fd5na1mvfgzy9rgeyyjar1t2a7eqg","conditionNumber":1},{"rt":1701,"stimulus":"\u003cblockquote\u003e\n  \u003cp\u003eNow the next anagram will be shown to you. \u003cbr\u003e\u003cbr\u003e Press 'v' to view the next anagram.\u003c/p\u003e\n\u003c/blockquote\u003e","key_press":86,"trial_type":"html-keyboard-response","trial_index":14,"time_elapsed":47771,"internal_node_id":"0.0-3.0-11.0","responseType":"finish","participantID":"ty9fd5na1mvfgzy9rgeyyjar1t2a7eqg","conditionNumber":1},{"rt":2967,"stimulus":"\u003cblockquote\u003e\n  \u003ch1 id=\"dleta\"\u003eDLETA\u003c/h1\u003e\n  \u003cp\u003e\u003cbr\u003e\u003cbr\u003e Press 'y' if you have solved the anagram.\u003c/p\u003e\n\u003c/blockquote\u003e","key_press":89,"trial_type":"html-keyboard-response","trial_index":15,"time_elapsed":50739,"internal_node_id":"0.0-3.0-12.0","responseType":"finish","participantID":"ty9fd5na1mvfgzy9rgeyyjar1t2a7eqg","conditionNumber":1},{"rt":3823,"responses":"{\"Q0\":\"delta\"}","trial_type":"survey-text","trial_index":16,"time_elapsed":54562,"internal_node_id":"0.0-3.0-13.0","responseType":"finish","participantID":"ty9fd5na1mvfgzy9rgeyyjar1t2a7eqg","conditionNumber":1},{"rt":16893,"responses":"{\"Q0\":5}","trial_type":"survey-likert","trial_index":17,"time_elapsed":71456,"internal_node_id":"0.0-4.0-0.0","responseType":"finish","participantID":"ty9fd5na1mvfgzy9rgeyyjar1t2a7eqg","conditionNumber":1},{"rt":3778,"responses":"{\"Q0\":1}","trial_type":"survey-likert","trial_index":18,"time_elapsed":75235,"internal_node_id":"0.0-4.0-0.1","responseType":"finish","participantID":"ty9fd5na1mvfgzy9rgeyyjar1t2a7eqg","conditionNumber":1},{"rt":4737,"responses":"{\"Q0\":3}","trial_type":"survey-likert","trial_index":19,"time_elapsed":79974,"internal_node_id":"0.0-4.0-0.2","responseType":"finish","participantID":"ty9fd5na1mvfgzy9rgeyyjar1t2a7eqg","conditionNumber":1}],"__v":0}
{"_id":{"$oid":"5c48f4ee6ccf5a0004f922de"},"data":[{"rt":6411,"responses":"{\"Q0\":\" I consent to participate\"}","trial_type":"survey-multi-choice","trial_index":0,"time_elapsed":6491,"internal_node_id":"0.0-0.0","responseType":"finish","participantID":"dh8482093lydsvvb19sw2ld84y89twkh","conditionNumber":0},{"trial_type":"call-function","trial_index":1,"time_elapsed":6509,"internal_node_id":"0.0-1.0","responseType":"finish","participantID":"dh8482093lydsvvb19sw2ld84y89twkh","conditionNumber":0},{"view_history":"[{\"page_index\":0,\"viewing_time\":4873},{\"page_index\":1,\"viewing_time\":2072},{\"page_index\":2,\"viewing_time\":1919}]","rt":8866,"trial_type":"instructions","trial_index":2,"time_elapsed":15376,"internal_node_id":"0.0-2.0","responseType":"finish","participantID":"dh8482093lydsvvb19sw2ld84y89twkh","conditionNumber":0},{"rt":14319,"stimulus":"\u003cblockquote\u003e\n  \u003ch1 id=\"oircnag\"\u003eOIRCNAG\u003c/h1\u003e\n  \u003cp\u003e\u003cbr\u003e\u003cbr\u003e Press 'y' if you have solved the anagram.\u003c/p\u003e\n\u003c/blockquote\u003e","key_press":89,"trial_type":"html-keyboard-response","trial_index":3,"time_elapsed":29698,"internal_node_id":"0.0-3.0-0.0","responseType":"finish","participantID":"dh8482093lydsvvb19sw2ld84y89twkh","conditionNumber":0},{"rt":6011,"responses":"{\"Q0\":\"Organic\"}","trial_type":"survey-text","trial_index":4,"time_elapsed":35712,"internal_node_id":"0.0-3.0-1.0","responseType":"finish","participantID":"dh8482093lydsvvb19sw2ld84y89twkh","conditionNumber":0},{"rt":2093,"stimulus":"\u003cblockquote\u003e\n  \u003cp\u003eNow the next anagram will be shown to you. \u003cbr\u003e\u003cbr\u003e Press 'v' to view the next anagram.\u003c/p\u003e\n\u003c/blockquote\u003e","key_press":86,"trial_type":"html-keyboard-response","trial_index":5,"time_elapsed":37808,"internal_node_id":"0.0-3.0-2.0","responseType":"finish","participantID":"dh8482093lydsvvb19sw2ld84y89twkh","conditionNumber":0},{"rt":10287,"stimulus":"\u003cblockquote\u003e\n  \u003ch1 id=\"nhatuyg\"\u003eNHATUYG\u003c/h1\u003e\n  \u003cp\u003e\u003cbr\u003e\u003cbr\u003e Press 'y' if you have solved the anagram.\u003c/p\u003e\n\u003c/blockquote\u003e","key_press":89,"trial_type":"html-keyboard-response","trial_index":6,"time_elapsed":48096,"internal_node_id":"0.0-3.0-3.0","responseType":"finish","participantID":"dh8482093lydsvvb19sw2ld84y89twkh","conditionNumber":0},{"rt":7350,"responses":"{\"Q0\":\"Naughty\"}","trial_type":"survey-text","trial_index":7,"time_elapsed":55448,"internal_node_id":"0.0-3.0-4.0","responseType":"finish","participantID":"dh8482093lydsvvb19sw2ld84y89twkh","conditionNumber":0},{"rt":1550,"stimulus":"\u003cblockquote\u003e\n  \u003cp\u003eNow the next anagram will be shown to you. \u003cbr\u003e\u003cbr\u003e Press 'v' to view the next anagram.\u003c/p\u003e\n\u003c/blockquote\u003e","key_press":86,"trial_type":"html-keyboard-response","trial_index":8,"time_elapsed":56999,"internal_node_id":"0.0-3.0-5.0","responseType":"finish","participantID":"dh8482093lydsvvb19sw2ld84y89twkh","conditionNumber":0},{"rt":null,"stimulus":"\u003cblockquote\u003e\n  \u003ch1 id=\"hkaomcm\"\u003eHKAOMCM\u003c/h1\u003e\n  \u003cp\u003e\u003cbr\u003e\u003cbr\u003e Press 'y' if you have solved the anagram.\u003c/p\u003e\n\u003c/blockquote\u003e","key_press":null,"trial_type":"html-keyboard-response","trial_index":9,"time_elapsed":87001,"internal_node_id":"0.0-3.0-6.0","responseType":"finish","participantID":"dh8482093lydsvvb19sw2ld84y89twkh","conditionNumber":0},{"rt":11644,"responses":"{\"Q0\":\"\"}","trial_type":"survey-text","trial_index":10,"time_elapsed":98648,"internal_node_id":"0.0-3.0-7.0","responseType":"finish","participantID":"dh8482093lydsvvb19sw2ld84y89twkh","conditionNumber":0},{"rt":2038,"stimulus":"\u003cblockquote\u003e\n  \u003cp\u003eNow the next anagram will be shown to you. \u003cbr\u003e\u003cbr\u003e Press 'v' to view the next anagram.\u003c/p\u003e\n\u003c/blockquote\u003e","key_press":86,"trial_type":"html-keyboard-response","trial_index":11,"time_elapsed":100688,"internal_node_id":"0.0-3.0-8.0","responseType":"finish","participantID":"dh8482093lydsvvb19sw2ld84y89twkh","conditionNumber":0},{"rt":null,"stimulus":"\u003cblockquote\u003e\n  \u003ch1 id=\"dalrbeu\"\u003eDALRBEU\u003c/h1\u003e\n  \u003cp\u003e\u003cbr\u003e\u003cbr\u003e Press 'y' if you have solved the anagram.\u003c/p\u003e\n\u003c/blockquote\u003e","key_press":null,"trial_type":"html-keyboard-response","trial_index":12,"time_elapsed":130692,"internal_node_id":"0.0-3.0-9.0","responseType":"finish","participantID":"dh8482093lydsvvb19sw2ld84y89twkh","conditionNumber":0},{"rt":5122,"responses":"{\"Q0\":\"\"}","trial_type":"survey-text","trial_index":13,"time_elapsed":135815,"internal_node_id":"0.0-3.0-10.0","responseType":"finish","participantID":"dh8482093lydsvvb19sw2ld84y89twkh","conditionNumber":0},{"rt":1087,"stimulus":"\u003cblockquote\u003e\n  \u003cp\u003eNow the next anagram will be shown to you. \u003cbr\u003e\u003cbr\u003e Press 'v' to view the next anagram.\u003c/p\u003e\n\u003c/blockquote\u003e","key_press":86,"trial_type":"html-keyboard-response","trial_index":14,"time_elapsed":136904,"internal_node_id":"0.0-3.0-11.0","responseType":"finish","participantID":"dh8482093lydsvvb19sw2ld84y89twkh","conditionNumber":0},{"rt":2551,"stimulus":"\u003cblockquote\u003e\n  \u003ch1 id=\"dleta\"\u003eDLETA\u003c/h1\u003e\n  \u003cp\u003e\u003cbr\u003e\u003cbr\u003e Press 'y' if you have solved the anagram.\u003c/p\u003e\n\u003c/blockquote\u003e","key_press":89,"trial_type":"html-keyboard-response","trial_index":15,"time_elapsed":139457,"internal_node_id":"0.0-3.0-12.0","responseType":"finish","participantID":"dh8482093lydsvvb19sw2ld84y89twkh","conditionNumber":0},{"rt":4974,"responses":"{\"Q0\":\"Delta\"}","trial_type":"survey-text","trial_index":16,"time_elapsed":144432,"internal_node_id":"0.0-3.0-13.0","responseType":"finish","participantID":"dh8482093lydsvvb19sw2ld84y89twkh","conditionNumber":0},{"rt":29693,"responses":"{\"Q0\":3}","trial_type":"survey-likert","trial_index":17,"time_elapsed":174130,"internal_node_id":"0.0-4.0-0.0","responseType":"finish","participantID":"dh8482093lydsvvb19sw2ld84y89twkh","conditionNumber":0},{"rt":13060,"responses":"{\"Q0\":5}","trial_type":"survey-likert","trial_index":18,"time_elapsed":187202,"internal_node_id":"0.0-4.0-0.1","responseType":"finish","participantID":"dh8482093lydsvvb19sw2ld84y89twkh","conditionNumber":0},{"rt":2956,"responses":"{\"Q0\":1}","trial_type":"survey-likert","trial_index":19,"time_elapsed":190168,"internal_node_id":"0.0-4.0-0.2","responseType":"finish","participantID":"dh8482093lydsvvb19sw2ld84y89twkh","conditionNumber":0}],"__v":0}
{"_id":{"$oid":"5c48f5566ccf5a0004f922df"},"data":{"responseType":"start","participantID":"yxor2ngwh19oc88naa6wm9kpw0regwgr","conditionNumber":0},"__v":0}
{"_id":{"$oid":"5c48f5c96ccf5a0004f922e0"},"data":{"responseType":"start","participantID":"s2rt9mnbyysyqlflsruszft8949qmc2s","conditionNumber":0},"__v":0}
{"_id":{"$oid":"5c48f6076ccf5a0004f922e1"},"data":[{"rt":10301,"responses":"{\"Q0\":\" I consent to participate\"}","trial_type":"survey-multi-choice","trial_index":0,"time_elapsed":10319,"internal_node_id":"0.0-0.0","responseType":"finish","participantID":"qqtv0yozoahpbhzrpegw9dgt3pkze831","conditionNumber":0},{"trial_type":"call-function","trial_index":1,"time_elapsed":10330,"internal_node_id":"0.0-1.0","responseType":"finish","participantID":"qqtv0yozoahpbhzrpegw9dgt3pkze831","conditionNumber":0},{"view_history":"[{\"page_index\":0,\"viewing_time\":479029},{\"page_index\":1,\"viewing_time\":5914},{\"page_index\":2,\"viewing_time\":4731}]","rt":489675,"trial_type":"instructions","trial_index":2,"time_elapsed":500005,"internal_node_id":"0.0-2.0","responseType":"finish","participantID":"qqtv0yozoahpbhzrpegw9dgt3pkze831","conditionNumber":0},{"rt":26236,"stimulus":"\u003cblockquote\u003e\n  \u003ch1 id=\"oircnag\"\u003eOIRCNAG\u003c/h1\u003e\n  \u003cp\u003e\u003cbr\u003e\u003cbr\u003e Press 'y' if you have solved the anagram.\u003c/p\u003e\n\u003c/blockquote\u003e","key_press":89,"trial_type":"html-keyboard-response","trial_index":3,"time_elapsed":526242,"internal_node_id":"0.0-3.0-0.0","responseType":"finish","participantID":"qqtv0yozoahpbhzrpegw9dgt3pkze831","conditionNumber":0},{"rt":4672,"responses":"{\"Q0\":\"ORGANIC\"}","trial_type":"survey-text","trial_index":4,"time_elapsed":530917,"internal_node_id":"0.0-3.0-1.0","responseType":"finish","participantID":"qqtv0yozoahpbhzrpegw9dgt3pkze831","conditionNumber":0},{"rt":2189,"stimulus":"\u003cblockquote\u003e\n  \u003cp\u003eNow the next anagram will be shown to you. \u003cbr\u003e\u003cbr\u003e Press 'v' to view the next anagram.\u003c/p\u003e\n\u003c/blockquote\u003e","key_press":86,"trial_type":"html-keyboard-response","trial_index":5,"time_elapsed":533109,"internal_node_id":"0.0-3.0-2.0","responseType":"finish","participantID":"qqtv0yozoahpbhzrpegw9dgt3pkze831","conditionNumber":0},{"rt":null,"stimulus":"\u003cblockquote\u003e\n  \u003ch1 id=\"nhatuyg\"\u003eNHATUYG\u003c/h1\u003e\n  \u003cp\u003e\u003cbr\u003e\u003cbr\u003e Press 'y' if you have solved the anagram.\u003c/p\u003e\n\u003c/blockquote\u003e","key_press":null,"trial_type":"html-keyboard-response","trial_index":6,"time_elapsed":563112,"internal_node_id":"0.0-3.0-3.0","responseType":"finish","participantID":"qqtv0yozoahpbhzrpegw9dgt3pkze831","conditionNumber":0},{"rt":2324,"responses":"{\"Q0\":\"\"}","trial_type":"survey-text","trial_index":7,"time_elapsed":565438,"internal_node_id":"0.0-3.0-4.0","responseType":"finish","participantID":"qqtv0yozoahpbhzrpegw9dgt3pkze831","conditionNumber":0},{"rt":1535,"stimulus":"\u003cblockquote\u003e\n  \u003cp\u003eNow the next anagram will be shown to you. \u003cbr\u003e\u003cbr\u003e Press 'v' to view the next anagram.\u003c/p\u003e\n\u003c/blockquote\u003e","key_press":86,"trial_type":"html-keyboard-response","trial_index":8,"time_elapsed":566976,"internal_node_id":"0.0-3.0-5.0","responseType":"finish","participantID":"qqtv0yozoahpbhzrpegw9dgt3pkze831","conditionNumber":0},{"rt":null,"stimulus":"\u003cblockquote\u003e\n  \u003ch1 id=\"hkaomcm\"\u003eHKAOMCM\u003c/h1\u003e\n  \u003cp\u003e\u003cbr\u003e\u003cbr\u003e Press 'y' if you have solved the anagram.\u003c/p\u003e\n\u003c/blockquote\u003e","key_press":null,"trial_type":"html-keyboard-response","trial_index":9,"time_elapsed":596977,"internal_node_id":"0.0-3.0-6.0","responseType":"finish","participantID":"qqtv0yozoahpbhzrpegw9dgt3pkze831","conditionNumber":0},{"rt":10084,"responses":"{\"Q0\":\"KMOCHAM\"}","trial_type":"survey-text","trial_index":10,"time_elapsed":607064,"internal_node_id":"0.0-3.0-7.0","responseType":"finish","participantID":"qqtv0yozoahpbhzrpegw9dgt3pkze831","conditionNumber":0},{"rt":1346,"stimulus":"\u003cblockquote\u003e\n  \u003cp\u003eNow the next anagram will be shown to you. \u003cbr\u003e\u003cbr\u003e Press 'v' to view the next anagram.\u003c/p\u003e\n\u003c/blockquote\u003e","key_press":86,"trial_type":"html-keyboard-response","trial_index":11,"time_elapsed":608413,"internal_node_id":"0.0-3.0-8.0","responseType":"finish","participantID":"qqtv0yozoahpbhzrpegw9dgt3pkze831","conditionNumber":0},{"rt":null,"stimulus":"\u003cblockquote\u003e\n  \u003ch1 id=\"dalrbeu\"\u003eDALRBEU\u003c/h1\u003e\n  \u003cp\u003e\u003cbr\u003e\u003cbr\u003e Press 'y' if you have solved the anagram.\u003c/p\u003e\n\u003c/blockquote\u003e","key_press":null,"trial_type":"html-keyboard-response","trial_index":12,"time_elapsed":638415,"internal_node_id":"0.0-3.0-9.0","responseType":"finish","participantID":"qqtv0yozoahpbhzrpegw9dgt3pkze831","conditionNumber":0},{"rt":2415,"responses":"{\"Q0\":\"BLADEUR\"}","trial_type":"survey-text","trial_index":13,"time_elapsed":640832,"internal_node_id":"0.0-3.0-10.0","responseType":"finish","participantID":"qqtv0yozoahpbhzrpegw9dgt3pkze831","conditionNumber":0},{"rt":1285,"stimulus":"\u003cblockquote\u003e\n  \u003cp\u003eNow the next anagram will be shown to you. \u003cbr\u003e\u003cbr\u003e Press 'v' to view the next anagram.\u003c/p\u003e\n\u003c/blockquote\u003e","key_press":86,"trial_type":"html-keyboard-response","trial_index":14,"time_elapsed":642120,"internal_node_id":"0.0-3.0-11.0","responseType":"finish","participantID":"qqtv0yozoahpbhzrpegw9dgt3pkze831","conditionNumber":0},{"rt":6763,"stimulus":"\u003cblockquote\u003e\n  \u003ch1 id=\"dleta\"\u003eDLETA\u003c/h1\u003e\n  \u003cp\u003e\u003cbr\u003e\u003cbr\u003e Press 'y' if you have solved the anagram.\u003c/p\u003e\n\u003c/blockquote\u003e","key_press":89,"trial_type":"html-keyboard-response","trial_index":15,"time_elapsed":648884,"internal_node_id":"0.0-3.0-12.0","responseType":"finish","participantID":"qqtv0yozoahpbhzrpegw9dgt3pkze831","conditionNumber":0},{"rt":3037,"responses":"{\"Q0\":\"DELTA\"}","trial_type":"survey-text","trial_index":16,"time_elapsed":651923,"internal_node_id":"0.0-3.0-13.0","responseType":"finish","participantID":"qqtv0yozoahpbhzrpegw9dgt3pkze831","conditionNumber":0},{"rt":3170,"responses":"{\"Q0\":5}","trial_type":"survey-likert","trial_index":17,"time_elapsed":655098,"internal_node_id":"0.0-4.0-0.0","responseType":"finish","participantID":"qqtv0yozoahpbhzrpegw9dgt3pkze831","conditionNumber":0},{"rt":7240,"responses":"{\"Q0\":4}","trial_type":"survey-likert","trial_index":18,"time_elapsed":662344,"internal_node_id":"0.0-4.0-0.1","responseType":"finish","participantID":"qqtv0yozoahpbhzrpegw9dgt3pkze831","conditionNumber":0},{"rt":2453,"responses":"{\"Q0\":1}","trial_type":"survey-likert","trial_index":19,"time_elapsed":664800,"internal_node_id":"0.0-4.0-0.2","responseType":"finish","participantID":"qqtv0yozoahpbhzrpegw9dgt3pkze831","conditionNumber":0}],"__v":0}
{"_id":{"$oid":"5c48f6186ccf5a0004f922e2"},"data":[{"rt":13179,"responses":"{\"Q0\":\" I consent to participate\"}","trial_type":"survey-multi-choice","trial_index":0,"time_elapsed":13213,"internal_node_id":"0.0-0.0","responseType":"finish","participantID":"yxor2ngwh19oc88naa6wm9kpw0regwgr","conditionNumber":0},{"trial_type":"call-function","trial_index":1,"time_elapsed":13222,"internal_node_id":"0.0-1.0","responseType":"finish","participantID":"yxor2ngwh19oc88naa6wm9kpw0regwgr","conditionNumber":0},{"view_history":"[{\"page_index\":0,\"viewing_time\":4753},{\"page_index\":1,\"viewing_time\":7528},{\"page_index\":2,\"viewing_time\":15864}]","rt":28145,"trial_type":"instructions","trial_index":2,"time_elapsed":41368,"internal_node_id":"0.0-2.0","responseType":"finish","participantID":"yxor2ngwh19oc88naa6wm9kpw0regwgr","conditionNumber":0},{"rt":null,"stimulus":"\u003cblockquote\u003e\n  \u003ch1 id=\"oircnag\"\u003eOIRCNAG\u003c/h1\u003e\n  \u003cp\u003e\u003cbr\u003e\u003cbr\u003e Press 'y' if you have solved the anagram.\u003c/p\u003e\n\u003c/blockquote\u003e","key_press":null,"trial_type":"html-keyboard-response","trial_index":3,"time_elapsed":71371,"internal_node_id":"0.0-3.0-0.0","responseType":"finish","participantID":"yxor2ngwh19oc88naa6wm9kpw0regwgr","conditionNumber":0},{"rt":4171,"responses":"{\"Q0\":\"\"}","trial_type":"survey-text","trial_index":4,"time_elapsed":75545,"internal_node_id":"0.0-3.0-1.0","responseType":"finish","participantID":"yxor2ngwh19oc88naa6wm9kpw0regwgr","conditionNumber":0},{"rt":2971,"stimulus":"\u003cblockquote\u003e\n  \u003cp\u003eNow the next anagram will be shown to you. \u003cbr\u003e\u003cbr\u003e Press 'v' to view the next anagram.\u003c/p\u003e\n\u003c/blockquote\u003e","key_press":86,"trial_type":"html-keyboard-response","trial_index":5,"time_elapsed":78516,"internal_node_id":"0.0-3.0-2.0","responseType":"finish","participantID":"yxor2ngwh19oc88naa6wm9kpw0regwgr","conditionNumber":0},{"rt":null,"stimulus":"\u003cblockquote\u003e\n  \u003ch1 id=\"nhatuyg\"\u003eNHATUYG\u003c/h1\u003e\n  \u003cp\u003e\u003cbr\u003e\u003cbr\u003e Press 'y' if you have solved the anagram.\u003c/p\u003e\n\u003c/blockquote\u003e","key_press":null,"trial_type":"html-keyboard-response","trial_index":6,"time_elapsed":108518,"internal_node_id":"0.0-3.0-3.0","responseType":"finish","participantID":"yxor2ngwh19oc88naa6wm9kpw0regwgr","conditionNumber":0},{"rt":2522,"responses":"{\"Q0\":\"\"}","trial_type":"survey-text","trial_index":7,"time_elapsed":111040,"internal_node_id":"0.0-3.0-4.0","responseType":"finish","participantID":"yxor2ngwh19oc88naa6wm9kpw0regwgr","conditionNumber":0},{"rt":2110,"stimulus":"\u003cblockquote\u003e\n  \u003cp\u003eNow the next anagram will be shown to you. \u003cbr\u003e\u003cbr\u003e Press 'v' to view the next anagram.\u003c/p\u003e\n\u003c/blockquote\u003e","key_press":86,"trial_type":"html-keyboard-response","trial_index":8,"time_elapsed":113150,"internal_node_id":"0.0-3.0-5.0","responseType":"finish","participantID":"yxor2ngwh19oc88naa6wm9kpw0regwgr","conditionNumber":0},{"rt":12877,"stimulus":"\u003cblockquote\u003e\n  \u003ch1 id=\"hkaomcm\"\u003eHKAOMCM\u003c/h1\u003e\n  \u003cp\u003e\u003cbr\u003e\u003cbr\u003e Press 'y' if you have solved the anagram.\u003c/p\u003e\n\u003c/blockquote\u003e","key_press":89,"trial_type":"html-keyboard-response","trial_index":9,"time_elapsed":126028,"internal_node_id":"0.0-3.0-6.0","responseType":"finish","participantID":"yxor2ngwh19oc88naa6wm9kpw0regwgr","conditionNumber":0},{"rt":6815,"responses":"{\"Q0\":\"hammock\"}","trial_type":"survey-text","trial_index":10,"time_elapsed":132843,"internal_node_id":"0.0-3.0-7.0","responseType":"finish","participantID":"yxor2ngwh19oc88naa6wm9kpw0regwgr","conditionNumber":0},{"rt":1780,"stimulus":"\u003cblockquote\u003e\n  \u003cp\u003eNow the next anagram will be shown to you. \u003cbr\u003e\u003cbr\u003e Press 'v' to view the next anagram.\u003c/p\u003e\n\u003c/blockquote\u003e","key_press":86,"trial_type":"html-keyboard-response","trial_index":11,"time_elapsed":134623,"internal_node_id":"0.0-3.0-8.0","responseType":"finish","participantID":"yxor2ngwh19oc88naa6wm9kpw0regwgr","conditionNumber":0},{"rt":null,"stimulus":"\u003cblockquote\u003e\n  \u003ch1 id=\"dalrbeu\"\u003eDALRBEU\u003c/h1\u003e\n  \u003cp\u003e\u003cbr\u003e\u003cbr\u003e Press 'y' if you have solved the anagram.\u003c/p\u003e\n\u003c/blockquote\u003e","key_press":null,"trial_type":"html-keyboard-response","trial_index":12,"time_elapsed":164625,"internal_node_id":"0.0-3.0-9.0","responseType":"finish","participantID":"yxor2ngwh19oc88naa6wm9kpw0regwgr","conditionNumber":0},{"rt":2075,"responses":"{\"Q0\":\"\"}","trial_type":"survey-text","trial_index":13,"time_elapsed":166701,"internal_node_id":"0.0-3.0-10.0","responseType":"finish","participantID":"yxor2ngwh19oc88naa6wm9kpw0regwgr","conditionNumber":0},{"rt":2555,"stimulus":"\u003cblockquote\u003e\n  \u003cp\u003eNow the next anagram will be shown to you. \u003cbr\u003e\u003cbr\u003e Press 'v' to view the next anagram.\u003c/p\u003e\n\u003c/blockquote\u003e","key_press":86,"trial_type":"html-keyboard-response","trial_index":14,"time_elapsed":169257,"internal_node_id":"0.0-3.0-11.0","responseType":"finish","participantID":"yxor2ngwh19oc88naa6wm9kpw0regwgr","conditionNumber":0},{"rt":17212,"stimulus":"\u003cblockquote\u003e\n  \u003ch1 id=\"dleta\"\u003eDLETA\u003c/h1\u003e\n  \u003cp\u003e\u003cbr\u003e\u003cbr\u003e Press 'y' if you have solved the anagram.\u003c/p\u003e\n\u003c/blockquote\u003e","key_press":89,"trial_type":"html-keyboard-response","trial_index":15,"time_elapsed":186470,"internal_node_id":"0.0-3.0-12.0","responseType":"finish","participantID":"yxor2ngwh19oc88naa6wm9kpw0regwgr","conditionNumber":0},{"rt":7028,"responses":"{\"Q0\":\"delta\"}","trial_type":"survey-text","trial_index":16,"time_elapsed":193499,"internal_node_id":"0.0-3.0-13.0","responseType":"finish","participantID":"yxor2ngwh19oc88naa6wm9kpw0regwgr","conditionNumber":0},{"rt":3568,"responses":"{\"Q0\":1}","trial_type":"survey-likert","trial_index":17,"time_elapsed":197070,"internal_node_id":"0.0-4.0-0.0","responseType":"finish","participantID":"yxor2ngwh19oc88naa6wm9kpw0regwgr","conditionNumber":0},{"rt":3698,"responses":"{\"Q0\":6}","trial_type":"survey-likert","trial_index":18,"time_elapsed":200773,"internal_node_id":"0.0-4.0-0.1","responseType":"finish","participantID":"yxor2ngwh19oc88naa6wm9kpw0regwgr","conditionNumber":0},{"rt":6300,"responses":"{\"Q0\":6}","trial_type":"survey-likert","trial_index":19,"time_elapsed":207080,"internal_node_id":"0.0-4.0-0.2","responseType":"finish","participantID":"yxor2ngwh19oc88naa6wm9kpw0regwgr","conditionNumber":0}],"__v":0}
{"_id":{"$oid":"5c48f6696ccf5a0004f922e3"},"data":[{"rt":6231,"responses":"{\"Q0\":\" I consent to participate\"}","trial_type":"survey-multi-choice","trial_index":0,"time_elapsed":6236,"internal_node_id":"0.0-0.0","responseType":"finish","participantID":"s2rt9mnbyysyqlflsruszft8949qmc2s","conditionNumber":0},{"trial_type":"call-function","trial_index":1,"time_elapsed":6240,"internal_node_id":"0.0-1.0","responseType":"finish","participantID":"s2rt9mnbyysyqlflsruszft8949qmc2s","conditionNumber":0},{"view_history":"[{\"page_index\":0,\"viewing_time\":4213},{\"page_index\":1,\"viewing_time\":3251},{\"page_index\":2,\"viewing_time\":8301}]","rt":15765,"trial_type":"instructions","trial_index":2,"time_elapsed":22005,"internal_node_id":"0.0-2.0","responseType":"finish","participantID":"s2rt9mnbyysyqlflsruszft8949qmc2s","conditionNumber":0},{"rt":null,"stimulus":"\u003cblockquote\u003e\n  \u003ch1 id=\"oircnag\"\u003eOIRCNAG\u003c/h1\u003e\n  \u003cp\u003e\u003cbr\u003e\u003cbr\u003e Press 'y' if you have solved the anagram.\u003c/p\u003e\n\u003c/blockquote\u003e","key_press":null,"trial_type":"html-keyboard-response","trial_index":3,"time_elapsed":52008,"internal_node_id":"0.0-3.0-0.0","responseType":"finish","participantID":"s2rt9mnbyysyqlflsruszft8949qmc2s","conditionNumber":0},{"rt":4818,"responses":"{\"Q0\":\"\"}","trial_type":"survey-text","trial_index":4,"time_elapsed":56827,"internal_node_id":"0.0-3.0-1.0","responseType":"finish","participantID":"s2rt9mnbyysyqlflsruszft8949qmc2s","conditionNumber":0},{"rt":2387,"stimulus":"\u003cblockquote\u003e\n  \u003cp\u003eNow the next anagram will be shown to you. \u003cbr\u003e\u003cbr\u003e Press 'v' to view the next anagram.\u003c/p\u003e\n\u003c/blockquote\u003e","key_press":86,"trial_type":"html-keyboard-response","trial_index":5,"time_elapsed":59214,"internal_node_id":"0.0-3.0-2.0","responseType":"finish","participantID":"s2rt9mnbyysyqlflsruszft8949qmc2s","conditionNumber":0},{"rt":11432,"stimulus":"\u003cblockquote\u003e\n  \u003ch1 id=\"nhatuyg\"\u003eNHATUYG\u003c/h1\u003e\n  \u003cp\u003e\u003cbr\u003e\u003cbr\u003e Press 'y' if you have solved the anagram.\u003c/p\u003e\n\u003c/blockquote\u003e","key_press":89,"trial_type":"html-keyboard-response","trial_index":6,"time_elapsed":70646,"internal_node_id":"0.0-3.0-3.0","responseType":"finish","participantID":"s2rt9mnbyysyqlflsruszft8949qmc2s","conditionNumber":0},{"rt":3478,"responses":"{\"Q0\":\"naughty\"}","trial_type":"survey-text","trial_index":7,"time_elapsed":74124,"internal_node_id":"0.0-3.0-4.0","responseType":"finish","participantID":"s2rt9mnbyysyqlflsruszft8949qmc2s","conditionNumber":0},{"rt":1490,"stimulus":"\u003cblockquote\u003e\n  \u003cp\u003eNow the next anagram will be shown to you. \u003cbr\u003e\u003cbr\u003e Press 'v' to view the next anagram.\u003c/p\u003e\n\u003c/blockquote\u003e","key_press":86,"trial_type":"html-keyboard-response","trial_index":8,"time_elapsed":75615,"internal_node_id":"0.0-3.0-5.0","responseType":"finish","participantID":"s2rt9mnbyysyqlflsruszft8949qmc2s","conditionNumber":0},{"rt":null,"stimulus":"\u003cblockquote\u003e\n  \u003ch1 id=\"hkaomcm\"\u003eHKAOMCM\u003c/h1\u003e\n  \u003cp\u003e\u003cbr\u003e\u003cbr\u003e Press 'y' if you have solved the anagram.\u003c/p\u003e\n\u003c/blockquote\u003e","key_press":null,"trial_type":"html-keyboard-response","trial_index":9,"time_elapsed":105616,"internal_node_id":"0.0-3.0-6.0","responseType":"finish","participantID":"s2rt9mnbyysyqlflsruszft8949qmc2s","conditionNumber":0},{"rt":2869,"responses":"{\"Q0\":\"\"}","trial_type":"survey-text","trial_index":10,"time_elapsed":108487,"internal_node_id":"0.0-3.0-7.0","responseType":"finish","participantID":"s2rt9mnbyysyqlflsruszft8949qmc2s","conditionNumber":0},{"rt":1594,"stimulus":"\u003cblockquote\u003e\n  \u003cp\u003eNow the next anagram will be shown to you. \u003cbr\u003e\u003cbr\u003e Press 'v' to view the next anagram.\u003c/p\u003e\n\u003c/blockquote\u003e","key_press":86,"trial_type":"html-keyboard-response","trial_index":11,"time_elapsed":110082,"internal_node_id":"0.0-3.0-8.0","responseType":"finish","participantID":"s2rt9mnbyysyqlflsruszft8949qmc2s","conditionNumber":0},{"rt":null,"stimulus":"\u003cblockquote\u003e\n  \u003ch1 id=\"dalrbeu\"\u003eDALRBEU\u003c/h1\u003e\n  \u003cp\u003e\u003cbr\u003e\u003cbr\u003e Press 'y' if you have solved the anagram.\u003c/p\u003e\n\u003c/blockquote\u003e","key_press":null,"trial_type":"html-keyboard-response","trial_index":12,"time_elapsed":140084,"internal_node_id":"0.0-3.0-9.0","responseType":"finish","participantID":"s2rt9mnbyysyqlflsruszft8949qmc2s","conditionNumber":0},{"rt":3162,"responses":"{\"Q0\":\"\"}","trial_type":"survey-text","trial_index":13,"time_elapsed":143246,"internal_node_id":"0.0-3.0-10.0","responseType":"finish","participantID":"s2rt9mnbyysyqlflsruszft8949qmc2s","conditionNumber":0},{"rt":1316,"stimulus":"\u003cblockquote\u003e\n  \u003cp\u003eNow the next anagram will be shown to you. \u003cbr\u003e\u003cbr\u003e Press 'v' to view the next anagram.\u003c/p\u003e\n\u003c/blockquote\u003e","key_press":86,"trial_type":"html-keyboard-response","trial_index":14,"time_elapsed":144562,"internal_node_id":"0.0-3.0-11.0","responseType":"finish","participantID":"s2rt9mnbyysyqlflsruszft8949qmc2s","conditionNumber":0},{"rt":2638,"stimulus":"\u003cblockquote\u003e\n  \u003ch1 id=\"dleta\"\u003eDLETA\u003c/h1\u003e\n  \u003cp\u003e\u003cbr\u003e\u003cbr\u003e Press 'y' if you have solved the anagram.\u003c/p\u003e\n\u003c/blockquote\u003e","key_press":89,"trial_type":"html-keyboard-response","trial_index":15,"time_elapsed":147200,"internal_node_id":"0.0-3.0-12.0","responseType":"finish","participantID":"s2rt9mnbyysyqlflsruszft8949qmc2s","conditionNumber":0},{"rt":3401,"responses":"{\"Q0\":\"delta\"}","trial_type":"survey-text","trial_index":16,"time_elapsed":150602,"internal_node_id":"0.0-3.0-13.0","responseType":"finish","participantID":"s2rt9mnbyysyqlflsruszft8949qmc2s","conditionNumber":0},{"rt":7882,"responses":"{\"Q0\":1}","trial_type":"survey-likert","trial_index":17,"time_elapsed":158485,"internal_node_id":"0.0-4.0-0.0","responseType":"finish","participantID":"s2rt9mnbyysyqlflsruszft8949qmc2s","conditionNumber":0},{"rt":2841,"responses":"{\"Q0\":1}","trial_type":"survey-likert","trial_index":18,"time_elapsed":161329,"internal_node_id":"0.0-4.0-0.1","responseType":"finish","participantID":"s2rt9mnbyysyqlflsruszft8949qmc2s","conditionNumber":0},{"rt":4766,"responses":"{\"Q0\":3}","trial_type":"survey-likert","trial_index":19,"time_elapsed":166096,"internal_node_id":"0.0-4.0-0.2","responseType":"finish","participantID":"s2rt9mnbyysyqlflsruszft8949qmc2s","conditionNumber":0}],"__v":0}
{"_id":{"$oid":"5c48f6856ccf5a0004f922e4"},"data":{"responseType":"start","participantID":"0lg9oqaeh75nq219v4wqywq7r6pzj381","conditionNumber":0},"__v":0}
{"_id":{"$oid":"5c48f6d86ccf5a0004f922e5"},"data":{"responseType":"start","participantID":"pxkrzol1v0czxgc7kdyo19wz2a5nvfdp","conditionNumber":1},"__v":0}
{"_id":{"$oid":"5c48f6e16ccf5a0004f922e6"},"data":{"responseType":"start","participantID":"ba2grwz855pyhs0keout1o8jxnvklb1v","conditionNumber":0},"__v":0}
{"_id":{"$oid":"5c48f6ec6ccf5a0004f922e7"},"data":{"responseType":"start","participantID":"g755v4qqmfz4vy829jnfadat6m0r5vtp","conditionNumber":1},"__v":0}
{"_id":{"$oid":"5c48f71e6ccf5a0004f922e8"},"data":{"responseType":"start","participantID":"3ffltnmhm0qpm0fghrnou0s2our1x38u","conditionNumber":1},"__v":0}
{"_id":{"$oid":"5c48f73e6ccf5a0004f922e9"},"data":[{"rt":3387,"responses":"{\"Q0\":\" I consent to participate\"}","trial_type":"survey-multi-choice","trial_index":0,"time_elapsed":3391,"internal_node_id":"0.0-0.0","responseType":"finish","participantID":"0lg9oqaeh75nq219v4wqywq7r6pzj381","conditionNumber":0},{"trial_type":"call-function","trial_index":1,"time_elapsed":3395,"internal_node_id":"0.0-1.0","responseType":"finish","participantID":"0lg9oqaeh75nq219v4wqywq7r6pzj381","conditionNumber":0},{"view_history":"[{\"page_index\":0,\"viewing_time\":2898},{\"page_index\":1,\"viewing_time\":16056},{\"page_index\":2,\"viewing_time\":6527}]","rt":25482,"trial_type":"instructions","trial_index":2,"time_elapsed":28877,"internal_node_id":"0.0-2.0","responseType":"finish","participantID":"0lg9oqaeh75nq219v4wqywq7r6pzj381","conditionNumber":0},{"rt":null,"stimulus":"\u003cblockquote\u003e\n  \u003ch1 id=\"oircnag\"\u003eOIRCNAG\u003c/h1\u003e\n  \u003cp\u003e\u003cbr\u003e\u003cbr\u003e Press 'y' if you have solved the anagram.\u003c/p\u003e\n\u003c/blockquote\u003e","key_press":null,"trial_type":"html-keyboard-response","trial_index":3,"time_elapsed":58880,"internal_node_id":"0.0-3.0-0.0","responseType":"finish","participantID":"0lg9oqaeh75nq219v4wqywq7r6pzj381","conditionNumber":0},{"rt":3500,"responses":"{\"Q0\":\"\"}","trial_type":"survey-text","trial_index":4,"time_elapsed":62381,"internal_node_id":"0.0-3.0-1.0","responseType":"finish","participantID":"0lg9oqaeh75nq219v4wqywq7r6pzj381","conditionNumber":0},{"rt":1884,"stimulus":"\u003cblockquote\u003e\n  \u003cp\u003eNow the next anagram will be shown to you. \u003cbr\u003e\u003cbr\u003e Press 'v' to view the next anagram.\u003c/p\u003e\n\u003c/blockquote\u003e","key_press":86,"trial_type":"html-keyboard-response","trial_index":5,"time_elapsed":64267,"internal_node_id":"0.0-3.0-2.0","responseType":"finish","participantID":"0lg9oqaeh75nq219v4wqywq7r6pzj381","conditionNumber":0},{"rt":null,"stimulus":"\u003cblockquote\u003e\n  \u003ch1 id=\"nhatuyg\"\u003eNHATUYG\u003c/h1\u003e\n  \u003cp\u003e\u003cbr\u003e\u003cbr\u003e Press 'y' if you have solved the anagram.\u003c/p\u003e\n\u003c/blockquote\u003e","key_press":null,"trial_type":"html-keyboard-response","trial_index":6,"time_elapsed":94379,"internal_node_id":"0.0-3.0-3.0","responseType":"finish","participantID":"0lg9oqaeh75nq219v4wqywq7r6pzj381","conditionNumber":0},{"rt":4304,"responses":"{\"Q0\":\"\"}","trial_type":"survey-text","trial_index":7,"time_elapsed":98684,"internal_node_id":"0.0-3.0-4.0","responseType":"finish","participantID":"0lg9oqaeh75nq219v4wqywq7r6pzj381","conditionNumber":0},{"rt":1372,"stimulus":"\u003cblockquote\u003e\n  \u003cp\u003eNow the next anagram will be shown to you. \u003cbr\u003e\u003cbr\u003e Press 'v' to view the next anagram.\u003c/p\u003e\n\u003c/blockquote\u003e","key_press":86,"trial_type":"html-keyboard-response","trial_index":8,"time_elapsed":100056,"internal_node_id":"0.0-3.0-5.0","responseType":"finish","participantID":"0lg9oqaeh75nq219v4wqywq7r6pzj381","conditionNumber":0},{"rt":null,"stimulus":"\u003cblockquote\u003e\n  \u003ch1 id=\"hkaomcm\"\u003eHKAOMCM\u003c/h1\u003e\n  \u003cp\u003e\u003cbr\u003e\u003cbr\u003e Press 'y' if you have solved the anagram.\u003c/p\u003e\n\u003c/blockquote\u003e","key_press":null,"trial_type":"html-keyboard-response","trial_index":9,"time_elapsed":130058,"internal_node_id":"0.0-3.0-6.0","responseType":"finish","participantID":"0lg9oqaeh75nq219v4wqywq7r6pzj381","conditionNumber":0},{"rt":3689,"responses":"{\"Q0\":\"\"}","trial_type":"survey-text","trial_index":10,"time_elapsed":133748,"internal_node_id":"0.0-3.0-7.0","responseType":"finish","participantID":"0lg9oqaeh75nq219v4wqywq7r6pzj381","conditionNumber":0},{"rt":1116,"stimulus":"\u003cblockquote\u003e\n  \u003cp\u003eNow the next anagram will be shown to you. \u003cbr\u003e\u003cbr\u003e Press 'v' to view the next anagram.\u003c/p\u003e\n\u003c/blockquote\u003e","key_press":86,"trial_type":"html-keyboard-response","trial_index":11,"time_elapsed":134864,"internal_node_id":"0.0-3.0-8.0","responseType":"finish","participantID":"0lg9oqaeh75nq219v4wqywq7r6pzj381","conditionNumber":0},{"rt":null,"stimulus":"\u003cblockquote\u003e\n  \u003ch1 id=\"dalrbeu\"\u003eDALRBEU\u003c/h1\u003e\n  \u003cp\u003e\u003cbr\u003e\u003cbr\u003e Press 'y' if you have solved the anagram.\u003c/p\u003e\n\u003c/blockquote\u003e","key_press":null,"trial_type":"html-keyboard-response","trial_index":12,"time_elapsed":164866,"internal_node_id":"0.0-3.0-9.0","responseType":"finish","participantID":"0lg9oqaeh75nq219v4wqywq7r6pzj381","conditionNumber":0},{"rt":2337,"responses":"{\"Q0\":\"\"}","trial_type":"survey-text","trial_index":13,"time_elapsed":167203,"internal_node_id":"0.0-3.0-10.0","responseType":"finish","participantID":"0lg9oqaeh75nq219v4wqywq7r6pzj381","conditionNumber":0},{"rt":1326,"stimulus":"\u003cblockquote\u003e\n  \u003cp\u003eNow the next anagram will be shown to you. \u003cbr\u003e\u003cbr\u003e Press 'v' to view the next anagram.\u003c/p\u003e\n\u003c/blockquote\u003e","key_press":86,"trial_type":"html-keyboard-response","trial_index":14,"time_elapsed":168530,"internal_node_id":"0.0-3.0-11.0","responseType":"finish","participantID":"0lg9oqaeh75nq219v4wqywq7r6pzj381","conditionNumber":0},{"rt":3298,"stimulus":"\u003cblockquote\u003e\n  \u003ch1 id=\"dleta\"\u003eDLETA\u003c/h1\u003e\n  \u003cp\u003e\u003cbr\u003e\u003cbr\u003e Press 'y' if you have solved the anagram.\u003c/p\u003e\n\u003c/blockquote\u003e","key_press":89,"trial_type":"html-keyboard-response","trial_index":15,"time_elapsed":171828,"internal_node_id":"0.0-3.0-12.0","responseType":"finish","participantID":"0lg9oqaeh75nq219v4wqywq7r6pzj381","conditionNumber":0},{"rt":3950,"responses":"{\"Q0\":\"delta\"}","trial_type":"survey-text","trial_index":16,"time_elapsed":175779,"internal_node_id":"0.0-3.0-13.0","responseType":"finish","participantID":"0lg9oqaeh75nq219v4wqywq7r6pzj381","conditionNumber":0},{"rt":3215,"responses":"{\"Q0\":4}","trial_type":"survey-likert","trial_index":17,"time_elapsed":178995,"internal_node_id":"0.0-4.0-0.0","responseType":"finish","participantID":"0lg9oqaeh75nq219v4wqywq7r6pzj381","conditionNumber":0},{"rt":7831,"responses":"{\"Q0\":5}","trial_type":"survey-likert","trial_index":18,"time_elapsed":186827,"internal_node_id":"0.0-4.0-0.1","responseType":"finish","participantID":"0lg9oqaeh75nq219v4wqywq7r6pzj381","conditionNumber":0},{"rt":2134,"responses":"{\"Q0\":1}","trial_type":"survey-likert","trial_index":19,"time_elapsed":188963,"internal_node_id":"0.0-4.0-0.2","responseType":"finish","participantID":"0lg9oqaeh75nq219v4wqywq7r6pzj381","conditionNumber":0}],"__v":0}
