{"_id":{"$oid":"5ccddcfa38066a000441ca78"},"data":{"responseType":"start","participantID":"yza8xjbo96p405sc1x1d85hdak9jlyrr","conditionNumber":1},"__v":0}
{"_id":{"$oid":"5ccddd0538066a000441ca79"},"data":{"responseType":"start","participantID":"2yna80qcz7rntot58ddx7x5sdwpc3ufc","conditionNumber":0},"__v":0}
{"_id":{"$oid":"5ccddd0b38066a000441ca7a"},"data":{"responseType":"start","participantID":"zy3byld4x25dcblr347zq4u4o7acy0ha","conditionNumber":0},"__v":0}
{"_id":{"$oid":"5ccddd1138066a000441ca7b"},"data":{"responseType":"start","participantID":"jump6vt1h7cunvtc8ck00vrn7l53r2fb","conditionNumber":0},"__v":0}
{"_id":{"$oid":"5ccddd1138066a000441ca7c"},"data":{"responseType":"start","participantID":"xepetbwcl5glb3ho5nmx2no9f5htv9oq","conditionNumber":1},"__v":0}
{"_id":{"$oid":"5ccddd1238066a000441ca7d"},"data":{"responseType":"start","participantID":"u30doxhdcob1n5ev0r3xbv5aqkf7dhuw","conditionNumber":1},"__v":0}
{"_id":{"$oid":"5ccddd1638066a000441ca7e"},"data":{"responseType":"start","participantID":"xlul9cor6gobj21a5ovzfll4ovl4dyls","conditionNumber":1},"__v":0}
{"_id":{"$oid":"5ccddd1b38066a000441ca7f"},"data":{"responseType":"start","participantID":"qud9r93pmolm1yybsyjwm7py2m8jlyc3","conditionNumber":0},"__v":0}
{"_id":{"$oid":"5ccddd2e38066a000441ca80"},"data":{"responseType":"start","participantID":"rk7sbtqot2cyyfwy0ldfsz019reto7cx","conditionNumber":0},"__v":0}
{"_id":{"$oid":"5ccddd5238066a000441ca81"},"data":{"responseType":"start","participantID":"mc7m1yejhzmwyhp9ew61du4l1guyw0yv","conditionNumber":1},"__v":0}
{"_id":{"$oid":"5ccddd5738066a000441ca82"},"data":{"responseType":"start","participantID":"y02mf3mr7awxgk5z61rln9bdfkp628gu","conditionNumber":0},"__v":0}
{"_id":{"$oid":"5ccddd7738066a000441ca83"},"data":{"responseType":"start","participantID":"1m37flx7jehg65uu89av91x0q08qvoap","conditionNumber":1},"__v":0}
{"_id":{"$oid":"5ccddd7938066a000441ca84"},"data":{"responseType":"start","participantID":"c56jw0el7w600sw6cwdpc4b2fslcqafb","conditionNumber":0},"__v":0}
{"_id":{"$oid":"5ccddd8b38066a000441ca85"},"data":[{"rt":3760,"responses":"{\"Q0\":\" I consent to participate\"}","trial_type":"survey-multi-choice","trial_index":0,"time_elapsed":3767,"internal_node_id":"0.0-0.0","responseType":"finish","participantID":"yza8xjbo96p405sc1x1d85hdak9jlyrr","conditionNumber":1},{"trial_type":"call-function","trial_index":1,"time_elapsed":3777,"internal_node_id":"0.0-1.0","responseType":"finish","participantID":"yza8xjbo96p405sc1x1d85hdak9jlyrr","conditionNumber":1},{"view_history":"[{\"page_index\":0,\"viewing_time\":2616},{\"page_index\":1,\"viewing_time\":3793},{\"page_index\":2,\"viewing_time\":4599}]","rt":11009,"trial_type":"instructions","trial_index":2,"time_elapsed":14786,"internal_node_id":"0.0-2.0","responseType":"finish","participantID":"yza8xjbo96p405sc1x1d85hdak9jlyrr","conditionNumber":1},{"rt":null,"stimulus":"\u003cblockquote\u003e\n  \u003ch1 id=\"orod\"\u003eOROD\u003c/h1\u003e\n  \u003cp\u003e\u003cbr\u003e\u003c/p\u003e\n\u003c/blockquote\u003e","key_press":null,"trial_type":"html-keyboard-response","trial_index":3,"time_elapsed":29787,"internal_node_id":"0.0-3.0-0.0","responseType":"finish","participantID":"yza8xjbo96p405sc1x1d85hdak9jlyrr","conditionNumber":1},{"rt":4429,"responses":"{\"Q0\":\"DOOR\"}","trial_type":"survey-text","trial_index":4,"time_elapsed":34218,"internal_node_id":"0.0-3.0-1.0","responseType":"finish","participantID":"yza8xjbo96p405sc1x1d85hdak9jlyrr","conditionNumber":1},{"rt":4032,"responses":"{\"Q0\":6}","trial_type":"survey-likert","trial_index":5,"time_elapsed":38251,"internal_node_id":"0.0-3.0-2.0","responseType":"finish","participantID":"yza8xjbo96p405sc1x1d85hdak9jlyrr","conditionNumber":1},{"rt":3265,"stimulus":"\u003cblockquote\u003e\n  \u003cp\u003eNow the next anagram will be shown to you. \u003cbr\u003e\u003cbr\u003e Press 'v' to view the next anagram.\u003c/p\u003e\n\u003c/blockquote\u003e","key_press":86,"trial_type":"html-keyboard-response","trial_index":6,"time_elapsed":41521,"internal_node_id":"0.0-3.0-3.0","responseType":"finish","participantID":"yza8xjbo96p405sc1x1d85hdak9jlyrr","conditionNumber":1},{"rt":null,"stimulus":"\u003cblockquote\u003e\n  \u003ch1 id=\"bluk\"\u003eBLUK\u003c/h1\u003e\n  \u003cp\u003e\u003cbr\u003e\u003c/p\u003e\n\u003c/blockquote\u003e","key_press":null,"trial_type":"html-keyboard-response","trial_index":7,"time_elapsed":56519,"internal_node_id":"0.0-3.0-4.0","responseType":"finish","participantID":"yza8xjbo96p405sc1x1d85hdak9jlyrr","conditionNumber":1},{"rt":4824,"responses":"{\"Q0\":\"BULK\"}","trial_type":"survey-text","trial_index":8,"time_elapsed":61343,"internal_node_id":"0.0-3.0-5.0","responseType":"finish","participantID":"yza8xjbo96p405sc1x1d85hdak9jlyrr","conditionNumber":1},{"rt":4039,"responses":"{\"Q0\":5}","trial_type":"survey-likert","trial_index":9,"time_elapsed":65384,"internal_node_id":"0.0-3.0-6.0","responseType":"finish","participantID":"yza8xjbo96p405sc1x1d85hdak9jlyrr","conditionNumber":1},{"rt":2015,"stimulus":"\u003cblockquote\u003e\n  \u003cp\u003eNow the next anagram will be shown to you. \u003cbr\u003e\u003cbr\u003e Press 'v' to view the next anagram.\u003c/p\u003e\n\u003c/blockquote\u003e","key_press":86,"trial_type":"html-keyboard-response","trial_index":10,"time_elapsed":67404,"internal_node_id":"0.0-3.0-7.0","responseType":"finish","participantID":"yza8xjbo96p405sc1x1d85hdak9jlyrr","conditionNumber":1},{"rt":null,"stimulus":"\u003cblockquote\u003e\n  \u003ch1 id=\"pitn\"\u003ePITN\u003c/h1\u003e\n  \u003cp\u003e\u003cbr\u003e\u003c/p\u003e\n\u003c/blockquote\u003e","key_press":null,"trial_type":"html-keyboard-response","trial_index":11,"time_elapsed":82405,"internal_node_id":"0.0-3.0-8.0","responseType":"finish","participantID":"yza8xjbo96p405sc1x1d85hdak9jlyrr","conditionNumber":1},{"rt":3329,"responses":"{\"Q0\":\"PINT\"}","trial_type":"survey-text","trial_index":12,"time_elapsed":85735,"internal_node_id":"0.0-3.0-9.0","responseType":"finish","participantID":"yza8xjbo96p405sc1x1d85hdak9jlyrr","conditionNumber":1},{"rt":2103,"responses":"{\"Q0\":6}","trial_type":"survey-likert","trial_index":13,"time_elapsed":87839,"internal_node_id":"0.0-3.0-10.0","responseType":"finish","participantID":"yza8xjbo96p405sc1x1d85hdak9jlyrr","conditionNumber":1},{"rt":1353,"stimulus":"\u003cblockquote\u003e\n  \u003cp\u003eNow the next anagram will be shown to you. \u003cbr\u003e\u003cbr\u003e Press 'v' to view the next anagram.\u003c/p\u003e\n\u003c/blockquote\u003e","key_press":86,"trial_type":"html-keyboard-response","trial_index":14,"time_elapsed":89196,"internal_node_id":"0.0-3.0-11.0","responseType":"finish","participantID":"yza8xjbo96p405sc1x1d85hdak9jlyrr","conditionNumber":1},{"rt":null,"stimulus":"\u003cblockquote\u003e\n  \u003ch1 id=\"srto\"\u003eSRTO\u003c/h1\u003e\n  \u003cp\u003e\u003cbr\u003e\u003c/p\u003e\n\u003c/blockquote\u003e","key_press":null,"trial_type":"html-keyboard-response","trial_index":15,"time_elapsed":104196,"internal_node_id":"0.0-3.0-12.0","responseType":"finish","participantID":"yza8xjbo96p405sc1x1d85hdak9jlyrr","conditionNumber":1},{"rt":2970,"responses":"{\"Q0\":\"ROTS\"}","trial_type":"survey-text","trial_index":16,"time_elapsed":107166,"internal_node_id":"0.0-3.0-13.0","responseType":"finish","participantID":"yza8xjbo96p405sc1x1d85hdak9jlyrr","conditionNumber":1},{"rt":2080,"responses":"{\"Q0\":6}","trial_type":"survey-likert","trial_index":17,"time_elapsed":109248,"internal_node_id":"0.0-3.0-14.0","responseType":"finish","participantID":"yza8xjbo96p405sc1x1d85hdak9jlyrr","conditionNumber":1},{"rt":1544,"stimulus":"\u003cblockquote\u003e\n  \u003cp\u003eNow the next anagram will be shown to you. \u003cbr\u003e\u003cbr\u003e Press 'v' to view the next anagram.\u003c/p\u003e\n\u003c/blockquote\u003e","key_press":86,"trial_type":"html-keyboard-response","trial_index":18,"time_elapsed":110797,"internal_node_id":"0.0-3.0-15.0","responseType":"finish","participantID":"yza8xjbo96p405sc1x1d85hdak9jlyrr","conditionNumber":1},{"rt":null,"stimulus":"\u003cblockquote\u003e\n  \u003ch1 id=\"dleta\"\u003eDLETA\u003c/h1\u003e\n  \u003cp\u003e\u003cbr\u003e\u003c/p\u003e\n\u003c/blockquote\u003e","key_press":null,"trial_type":"html-keyboard-response","trial_index":19,"time_elapsed":125799,"internal_node_id":"0.0-3.0-16.0","responseType":"finish","participantID":"yza8xjbo96p405sc1x1d85hdak9jlyrr","conditionNumber":1},{"rt":3845,"responses":"{\"Q0\":\"DEALT\"}","trial_type":"survey-text","trial_index":20,"time_elapsed":129644,"internal_node_id":"0.0-3.0-17.0","responseType":"finish","participantID":"yza8xjbo96p405sc1x1d85hdak9jlyrr","conditionNumber":1},{"rt":3863,"responses":"{\"Q0\":1}","trial_type":"survey-likert","trial_index":21,"time_elapsed":133508,"internal_node_id":"0.0-4.0-0.0","responseType":"finish","participantID":"yza8xjbo96p405sc1x1d85hdak9jlyrr","conditionNumber":1},{"rt":3836,"responses":"{\"Q0\":5}","trial_type":"survey-likert","trial_index":22,"time_elapsed":137348,"internal_node_id":"0.0-4.0-0.1","responseType":"finish","participantID":"yza8xjbo96p405sc1x1d85hdak9jlyrr","conditionNumber":1},{"rt":10523,"responses":"{\"Q0\":1}","trial_type":"survey-likert","trial_index":23,"time_elapsed":147876,"internal_node_id":"0.0-4.0-0.2","responseType":"finish","participantID":"yza8xjbo96p405sc1x1d85hdak9jlyrr","conditionNumber":1}],"__v":0}
{"_id":{"$oid":"5ccddd9e38066a000441ca86"},"data":[{"rt":8407,"responses":"{\"Q0\":\" I consent to participate\"}","trial_type":"survey-multi-choice","trial_index":0,"time_elapsed":8410,"internal_node_id":"0.0-0.0","responseType":"finish","participantID":"u30doxhdcob1n5ev0r3xbv5aqkf7dhuw","conditionNumber":1},{"trial_type":"call-function","trial_index":1,"time_elapsed":8412,"internal_node_id":"0.0-1.0","responseType":"finish","participantID":"u30doxhdcob1n5ev0r3xbv5aqkf7dhuw","conditionNumber":1},{"view_history":"[{\"page_index\":0,\"viewing_time\":3987},{\"page_index\":1,\"viewing_time\":2646},{\"page_index\":2,\"viewing_time\":6272}]","rt":12905,"trial_type":"instructions","trial_index":2,"time_elapsed":21317,"internal_node_id":"0.0-2.0","responseType":"finish","participantID":"u30doxhdcob1n5ev0r3xbv5aqkf7dhuw","conditionNumber":1},{"rt":null,"stimulus":"\u003cblockquote\u003e\n  \u003ch1 id=\"orod\"\u003eOROD\u003c/h1\u003e\n  \u003cp\u003e\u003cbr\u003e\u003c/p\u003e\n\u003c/blockquote\u003e","key_press":null,"trial_type":"html-keyboard-response","trial_index":3,"time_elapsed":36319,"internal_node_id":"0.0-3.0-0.0","responseType":"finish","participantID":"u30doxhdcob1n5ev0r3xbv5aqkf7dhuw","conditionNumber":1},{"rt":4825,"responses":"{\"Q0\":\"DOOR\"}","trial_type":"survey-text","trial_index":4,"time_elapsed":41145,"internal_node_id":"0.0-3.0-1.0","responseType":"finish","participantID":"u30doxhdcob1n5ev0r3xbv5aqkf7dhuw","conditionNumber":1},{"rt":4950,"responses":"{\"Q0\":3}","trial_type":"survey-likert","trial_index":5,"time_elapsed":46096,"internal_node_id":"0.0-3.0-2.0","responseType":"finish","participantID":"u30doxhdcob1n5ev0r3xbv5aqkf7dhuw","conditionNumber":1},{"rt":1378,"stimulus":"\u003cblockquote\u003e\n  \u003cp\u003eNow the next anagram will be shown to you. \u003cbr\u003e\u003cbr\u003e Press 'v' to view the next anagram.\u003c/p\u003e\n\u003c/blockquote\u003e","key_press":86,"trial_type":"html-keyboard-response","trial_index":6,"time_elapsed":47476,"internal_node_id":"0.0-3.0-3.0","responseType":"finish","participantID":"u30doxhdcob1n5ev0r3xbv5aqkf7dhuw","conditionNumber":1},{"rt":null,"stimulus":"\u003cblockquote\u003e\n  \u003ch1 id=\"bluk\"\u003eBLUK\u003c/h1\u003e\n  \u003cp\u003e\u003cbr\u003e\u003c/p\u003e\n\u003c/blockquote\u003e","key_press":null,"trial_type":"html-keyboard-response","trial_index":7,"time_elapsed":62712,"internal_node_id":"0.0-3.0-4.0","responseType":"finish","participantID":"u30doxhdcob1n5ev0r3xbv5aqkf7dhuw","conditionNumber":1},{"rt":6536,"responses":"{\"Q0\":\"BULK\"}","trial_type":"survey-text","trial_index":8,"time_elapsed":69250,"internal_node_id":"0.0-3.0-5.0","responseType":"finish","participantID":"u30doxhdcob1n5ev0r3xbv5aqkf7dhuw","conditionNumber":1},{"rt":2349,"responses":"{\"Q0\":3}","trial_type":"survey-likert","trial_index":9,"time_elapsed":71599,"internal_node_id":"0.0-3.0-6.0","responseType":"finish","participantID":"u30doxhdcob1n5ev0r3xbv5aqkf7dhuw","conditionNumber":1},{"rt":897,"stimulus":"\u003cblockquote\u003e\n  \u003cp\u003eNow the next anagram will be shown to you. \u003cbr\u003e\u003cbr\u003e Press 'v' to view the next anagram.\u003c/p\u003e\n\u003c/blockquote\u003e","key_press":86,"trial_type":"html-keyboard-response","trial_index":10,"time_elapsed":72497,"internal_node_id":"0.0-3.0-7.0","responseType":"finish","participantID":"u30doxhdcob1n5ev0r3xbv5aqkf7dhuw","conditionNumber":1},{"rt":null,"stimulus":"\u003cblockquote\u003e\n  \u003ch1 id=\"pitn\"\u003ePITN\u003c/h1\u003e\n  \u003cp\u003e\u003cbr\u003e\u003c/p\u003e\n\u003c/blockquote\u003e","key_press":null,"trial_type":"html-keyboard-response","trial_index":11,"time_elapsed":87498,"internal_node_id":"0.0-3.0-8.0","responseType":"finish","participantID":"u30doxhdcob1n5ev0r3xbv5aqkf7dhuw","conditionNumber":1},{"rt":2695,"responses":"{\"Q0\":\"PINT\"}","trial_type":"survey-text","trial_index":12,"time_elapsed":90193,"internal_node_id":"0.0-3.0-9.0","responseType":"finish","participantID":"u30doxhdcob1n5ev0r3xbv5aqkf7dhuw","conditionNumber":1},{"rt":4285,"responses":"{\"Q0\":4}","trial_type":"survey-likert","trial_index":13,"time_elapsed":94479,"internal_node_id":"0.0-3.0-10.0","responseType":"finish","participantID":"u30doxhdcob1n5ev0r3xbv5aqkf7dhuw","conditionNumber":1},{"rt":706,"stimulus":"\u003cblockquote\u003e\n  \u003cp\u003eNow the next anagram will be shown to you. \u003cbr\u003e\u003cbr\u003e Press 'v' to view the next anagram.\u003c/p\u003e\n\u003c/blockquote\u003e","key_press":86,"trial_type":"html-keyboard-response","trial_index":14,"time_elapsed":95187,"internal_node_id":"0.0-3.0-11.0","responseType":"finish","participantID":"u30doxhdcob1n5ev0r3xbv5aqkf7dhuw","conditionNumber":1},{"rt":null,"stimulus":"\u003cblockquote\u003e\n  \u003ch1 id=\"srto\"\u003eSRTO\u003c/h1\u003e\n  \u003cp\u003e\u003cbr\u003e\u003c/p\u003e\n\u003c/blockquote\u003e","key_press":null,"trial_type":"html-keyboard-response","trial_index":15,"time_elapsed":110190,"internal_node_id":"0.0-3.0-12.0","responseType":"finish","participantID":"u30doxhdcob1n5ev0r3xbv5aqkf7dhuw","conditionNumber":1},{"rt":2707,"responses":"{\"Q0\":\"SORT\"}","trial_type":"survey-text","trial_index":16,"time_elapsed":112897,"internal_node_id":"0.0-3.0-13.0","responseType":"finish","participantID":"u30doxhdcob1n5ev0r3xbv5aqkf7dhuw","conditionNumber":1},{"rt":2459,"responses":"{\"Q0\":3}","trial_type":"survey-likert","trial_index":17,"time_elapsed":115357,"internal_node_id":"0.0-3.0-14.0","responseType":"finish","participantID":"u30doxhdcob1n5ev0r3xbv5aqkf7dhuw","conditionNumber":1},{"rt":812,"stimulus":"\u003cblockquote\u003e\n  \u003cp\u003eNow the next anagram will be shown to you. \u003cbr\u003e\u003cbr\u003e Press 'v' to view the next anagram.\u003c/p\u003e\n\u003c/blockquote\u003e","key_press":86,"trial_type":"html-keyboard-response","trial_index":18,"time_elapsed":116170,"internal_node_id":"0.0-3.0-15.0","responseType":"finish","participantID":"u30doxhdcob1n5ev0r3xbv5aqkf7dhuw","conditionNumber":1},{"rt":null,"stimulus":"\u003cblockquote\u003e\n  \u003ch1 id=\"dleta\"\u003eDLETA\u003c/h1\u003e\n  \u003cp\u003e\u003cbr\u003e\u003c/p\u003e\n\u003c/blockquote\u003e","key_press":null,"trial_type":"html-keyboard-response","trial_index":19,"time_elapsed":131172,"internal_node_id":"0.0-3.0-16.0","responseType":"finish","participantID":"u30doxhdcob1n5ev0r3xbv5aqkf7dhuw","conditionNumber":1},{"rt":3875,"responses":"{\"Q0\":\"DELTA\"}","trial_type":"survey-text","trial_index":20,"time_elapsed":135047,"internal_node_id":"0.0-3.0-17.0","responseType":"finish","participantID":"u30doxhdcob1n5ev0r3xbv5aqkf7dhuw","conditionNumber":1},{"rt":4307,"responses":"{\"Q0\":1}","trial_type":"survey-likert","trial_index":21,"time_elapsed":139355,"internal_node_id":"0.0-4.0-0.0","responseType":"finish","participantID":"u30doxhdcob1n5ev0r3xbv5aqkf7dhuw","conditionNumber":1},{"rt":2930,"responses":"{\"Q0\":4}","trial_type":"survey-likert","trial_index":22,"time_elapsed":142285,"internal_node_id":"0.0-4.0-0.1","responseType":"finish","participantID":"u30doxhdcob1n5ev0r3xbv5aqkf7dhuw","conditionNumber":1},{"rt":6349,"responses":"{\"Q0\":2}","trial_type":"survey-likert","trial_index":23,"time_elapsed":148635,"internal_node_id":"0.0-4.0-0.2","responseType":"finish","participantID":"u30doxhdcob1n5ev0r3xbv5aqkf7dhuw","conditionNumber":1}],"__v":0}
{"_id":{"$oid":"5ccdddac38066a000441ca87"},"data":{"responseType":"start","participantID":"olfapq25ckwv251ju5khf3zmtols9w08","conditionNumber":0},"__v":0}
{"_id":{"$oid":"5ccdddb238066a000441ca88"},"data":[{"rt":6191,"responses":"{\"Q0\":\" I consent to participate\"}","trial_type":"survey-multi-choice","trial_index":0,"time_elapsed":6195,"internal_node_id":"0.0-0.0","responseType":"finish","participantID":"jump6vt1h7cunvtc8ck00vrn7l53r2fb","conditionNumber":0},{"trial_type":"call-function","trial_index":1,"time_elapsed":6199,"internal_node_id":"0.0-1.0","responseType":"finish","participantID":"jump6vt1h7cunvtc8ck00vrn7l53r2fb","conditionNumber":0},{"view_history":"[{\"page_index\":0,\"viewing_time\":4928},{\"page_index\":1,\"viewing_time\":5819},{\"page_index\":2,\"viewing_time\":4805}]","rt":15552,"trial_type":"instructions","trial_index":2,"time_elapsed":21752,"internal_node_id":"0.0-2.0","responseType":"finish","participantID":"jump6vt1h7cunvtc8ck00vrn7l53r2fb","conditionNumber":0},{"rt":null,"stimulus":"\u003cblockquote\u003e\n  \u003ch1 id=\"oircnag\"\u003eOIRCNAG\u003c/h1\u003e\n  \u003cp\u003e\u003cbr\u003e\u003c/p\u003e\n\u003c/blockquote\u003e","key_press":null,"trial_type":"html-keyboard-response","trial_index":3,"time_elapsed":36753,"internal_node_id":"0.0-3.0-0.0","responseType":"finish","participantID":"jump6vt1h7cunvtc8ck00vrn7l53r2fb","conditionNumber":0},{"rt":5906,"responses":"{\"Q0\":\"organic\"}","trial_type":"survey-text","trial_index":4,"time_elapsed":42662,"internal_node_id":"0.0-3.0-1.0","responseType":"finish","participantID":"jump6vt1h7cunvtc8ck00vrn7l53r2fb","conditionNumber":0},{"rt":4758,"responses":"{\"Q0\":4}","trial_type":"survey-likert","trial_index":5,"time_elapsed":47421,"internal_node_id":"0.0-3.0-2.0","responseType":"finish","participantID":"jump6vt1h7cunvtc8ck00vrn7l53r2fb","conditionNumber":0},{"rt":2692,"stimulus":"\u003cblockquote\u003e\n  \u003cp\u003eNow the next anagram will be shown to you. \u003cbr\u003e\u003cbr\u003e Press 'v' to view the next anagram.\u003c/p\u003e\n\u003c/blockquote\u003e","key_press":86,"trial_type":"html-keyboard-response","trial_index":6,"time_elapsed":50115,"internal_node_id":"0.0-3.0-3.0","responseType":"finish","participantID":"jump6vt1h7cunvtc8ck00vrn7l53r2fb","conditionNumber":0},{"rt":null,"stimulus":"\u003cblockquote\u003e\n  \u003ch1 id=\"hnatuyg\"\u003eHNATUYG\u003c/h1\u003e\n  \u003cp\u003e\u003cbr\u003e\u003c/p\u003e\n\u003c/blockquote\u003e","key_press":null,"trial_type":"html-keyboard-response","trial_index":7,"time_elapsed":65119,"internal_node_id":"0.0-3.0-4.0","responseType":"finish","participantID":"jump6vt1h7cunvtc8ck00vrn7l53r2fb","conditionNumber":0},{"rt":4831,"responses":"{\"Q0\":\"\"}","trial_type":"survey-text","trial_index":8,"time_elapsed":69951,"internal_node_id":"0.0-3.0-5.0","responseType":"finish","participantID":"jump6vt1h7cunvtc8ck00vrn7l53r2fb","conditionNumber":0},{"rt":2780,"responses":"{\"Q0\":1}","trial_type":"survey-likert","trial_index":9,"time_elapsed":72732,"internal_node_id":"0.0-3.0-6.0","responseType":"finish","participantID":"jump6vt1h7cunvtc8ck00vrn7l53r2fb","conditionNumber":0},{"rt":2254,"stimulus":"\u003cblockquote\u003e\n  \u003cp\u003eNow the next anagram will be shown to you. \u003cbr\u003e\u003cbr\u003e Press 'v' to view the next anagram.\u003c/p\u003e\n\u003c/blockquote\u003e","key_press":86,"trial_type":"html-keyboard-response","trial_index":10,"time_elapsed":74988,"internal_node_id":"0.0-3.0-7.0","responseType":"finish","participantID":"jump6vt1h7cunvtc8ck00vrn7l53r2fb","conditionNumber":0},{"rt":null,"stimulus":"\u003cblockquote\u003e\n  \u003ch1 id=\"khaomcm\"\u003eKHAOMCM\u003c/h1\u003e\n  \u003cp\u003e\u003cbr\u003e\u003c/p\u003e\n\u003c/blockquote\u003e","key_press":null,"trial_type":"html-keyboard-response","trial_index":11,"time_elapsed":89990,"internal_node_id":"0.0-3.0-8.0","responseType":"finish","participantID":"jump6vt1h7cunvtc8ck00vrn7l53r2fb","conditionNumber":0},{"rt":4335,"responses":"{\"Q0\":\"hammock\"}","trial_type":"survey-text","trial_index":12,"time_elapsed":94326,"internal_node_id":"0.0-3.0-9.0","responseType":"finish","participantID":"jump6vt1h7cunvtc8ck00vrn7l53r2fb","conditionNumber":0},{"rt":2916,"responses":"{\"Q0\":5}","trial_type":"survey-likert","trial_index":13,"time_elapsed":97244,"internal_node_id":"0.0-3.0-10.0","responseType":"finish","participantID":"jump6vt1h7cunvtc8ck00vrn7l53r2fb","conditionNumber":0},{"rt":2241,"stimulus":"\u003cblockquote\u003e\n  \u003cp\u003eNow the next anagram will be shown to you. \u003cbr\u003e\u003cbr\u003e Press 'v' to view the next anagram.\u003c/p\u003e\n\u003c/blockquote\u003e","key_press":86,"trial_type":"html-keyboard-response","trial_index":14,"time_elapsed":99485,"internal_node_id":"0.0-3.0-11.0","responseType":"finish","participantID":"jump6vt1h7cunvtc8ck00vrn7l53r2fb","conditionNumber":0},{"rt":null,"stimulus":"\u003cblockquote\u003e\n  \u003ch1 id=\"dalrbeu\"\u003eDALRBEU\u003c/h1\u003e\n  \u003cp\u003e\u003cbr\u003e\u003c/p\u003e\n\u003c/blockquote\u003e","key_press":null,"trial_type":"html-keyboard-response","trial_index":15,"time_elapsed":114487,"internal_node_id":"0.0-3.0-12.0","responseType":"finish","participantID":"jump6vt1h7cunvtc8ck00vrn7l53r2fb","conditionNumber":0},{"rt":3777,"responses":"{\"Q0\":\"durable\"}","trial_type":"survey-text","trial_index":16,"time_elapsed":118265,"internal_node_id":"0.0-3.0-13.0","responseType":"finish","participantID":"jump6vt1h7cunvtc8ck00vrn7l53r2fb","conditionNumber":0},{"rt":2008,"responses":"{\"Q0\":5}","trial_type":"survey-likert","trial_index":17,"time_elapsed":120274,"internal_node_id":"0.0-3.0-14.0","responseType":"finish","participantID":"jump6vt1h7cunvtc8ck00vrn7l53r2fb","conditionNumber":0},{"rt":1712,"stimulus":"\u003cblockquote\u003e\n  \u003cp\u003eNow the next anagram will be shown to you. \u003cbr\u003e\u003cbr\u003e Press 'v' to view the next anagram.\u003c/p\u003e\n\u003c/blockquote\u003e","key_press":86,"trial_type":"html-keyboard-response","trial_index":18,"time_elapsed":121988,"internal_node_id":"0.0-3.0-15.0","responseType":"finish","participantID":"jump6vt1h7cunvtc8ck00vrn7l53r2fb","conditionNumber":0},{"rt":null,"stimulus":"\u003cblockquote\u003e\n  \u003ch1 id=\"dleta\"\u003eDLETA\u003c/h1\u003e\n  \u003cp\u003e\u003cbr\u003e\u003c/p\u003e\n\u003c/blockquote\u003e","key_press":null,"trial_type":"html-keyboard-response","trial_index":19,"time_elapsed":136988,"internal_node_id":"0.0-3.0-16.0","responseType":"finish","participantID":"jump6vt1h7cunvtc8ck00vrn7l53r2fb","conditionNumber":0},{"rt":15002,"responses":"{\"Q0\":\"dleta\"}","trial_type":"survey-text","trial_index":20,"time_elapsed":151992,"internal_node_id":"0.0-3.0-17.0","responseType":"finish","participantID":"jump6vt1h7cunvtc8ck00vrn7l53r2fb","conditionNumber":0},{"rt":3916,"responses":"{\"Q0\":0}","trial_type":"survey-likert","trial_index":21,"time_elapsed":155909,"internal_node_id":"0.0-4.0-0.0","responseType":"finish","participantID":"jump6vt1h7cunvtc8ck00vrn7l53r2fb","conditionNumber":0},{"rt":2553,"responses":"{\"Q0\":1}","trial_type":"survey-likert","trial_index":22,"time_elapsed":158463,"internal_node_id":"0.0-4.0-0.1","responseType":"finish","participantID":"jump6vt1h7cunvtc8ck00vrn7l53r2fb","conditionNumber":0},{"rt":8203,"responses":"{\"Q0\":0}","trial_type":"survey-likert","trial_index":23,"time_elapsed":166667,"internal_node_id":"0.0-4.0-0.2","responseType":"finish","participantID":"jump6vt1h7cunvtc8ck00vrn7l53r2fb","conditionNumber":0}],"__v":0}
{"_id":{"$oid":"5ccdddb838066a000441ca89"},"data":[{"rt":5825,"responses":"{\"Q0\":\" I consent to participate\"}","trial_type":"survey-multi-choice","trial_index":0,"time_elapsed":5839,"internal_node_id":"0.0-0.0","responseType":"finish","participantID":"xepetbwcl5glb3ho5nmx2no9f5htv9oq","conditionNumber":1},{"trial_type":"call-function","trial_index":1,"time_elapsed":5851,"internal_node_id":"0.0-1.0","responseType":"finish","participantID":"xepetbwcl5glb3ho5nmx2no9f5htv9oq","conditionNumber":1},{"view_history":"[{\"page_index\":0,\"viewing_time\":3502},{\"page_index\":1,\"viewing_time\":2659},{\"page_index\":2,\"viewing_time\":4212}]","rt":10375,"trial_type":"instructions","trial_index":2,"time_elapsed":16227,"internal_node_id":"0.0-2.0","responseType":"finish","participantID":"xepetbwcl5glb3ho5nmx2no9f5htv9oq","conditionNumber":1},{"rt":null,"stimulus":"\u003cblockquote\u003e\n  \u003ch1 id=\"orod\"\u003eOROD\u003c/h1\u003e\n  \u003cp\u003e\u003cbr\u003e\u003c/p\u003e\n\u003c/blockquote\u003e","key_press":null,"trial_type":"html-keyboard-response","trial_index":3,"time_elapsed":31231,"internal_node_id":"0.0-3.0-0.0","responseType":"finish","participantID":"xepetbwcl5glb3ho5nmx2no9f5htv9oq","conditionNumber":1},{"rt":5154,"responses":"{\"Q0\":\"Odor\"}","trial_type":"survey-text","trial_index":4,"time_elapsed":36389,"internal_node_id":"0.0-3.0-1.0","responseType":"finish","participantID":"xepetbwcl5glb3ho5nmx2no9f5htv9oq","conditionNumber":1},{"rt":5438,"responses":"{\"Q0\":5}","trial_type":"survey-likert","trial_index":5,"time_elapsed":41832,"internal_node_id":"0.0-3.0-2.0","responseType":"finish","participantID":"xepetbwcl5glb3ho5nmx2no9f5htv9oq","conditionNumber":1},{"rt":1975,"stimulus":"\u003cblockquote\u003e\n  \u003cp\u003eNow the next anagram will be shown to you. \u003cbr\u003e\u003cbr\u003e Press 'v' to view the next anagram.\u003c/p\u003e\n\u003c/blockquote\u003e","key_press":86,"trial_type":"html-keyboard-response","trial_index":6,"time_elapsed":43811,"internal_node_id":"0.0-3.0-3.0","responseType":"finish","participantID":"xepetbwcl5glb3ho5nmx2no9f5htv9oq","conditionNumber":1},{"rt":null,"stimulus":"\u003cblockquote\u003e\n  \u003ch1 id=\"bluk\"\u003eBLUK\u003c/h1\u003e\n  \u003cp\u003e\u003cbr\u003e\u003c/p\u003e\n\u003c/blockquote\u003e","key_press":null,"trial_type":"html-keyboard-response","trial_index":7,"time_elapsed":58819,"internal_node_id":"0.0-3.0-4.0","responseType":"finish","participantID":"xepetbwcl5glb3ho5nmx2no9f5htv9oq","conditionNumber":1},{"rt":2317,"responses":"{\"Q0\":\"\"}","trial_type":"survey-text","trial_index":8,"time_elapsed":61138,"internal_node_id":"0.0-3.0-5.0","responseType":"finish","participantID":"xepetbwcl5glb3ho5nmx2no9f5htv9oq","conditionNumber":1},{"rt":2404,"responses":"{\"Q0\":2}","trial_type":"survey-likert","trial_index":9,"time_elapsed":63546,"internal_node_id":"0.0-3.0-6.0","responseType":"finish","participantID":"xepetbwcl5glb3ho5nmx2no9f5htv9oq","conditionNumber":1},{"rt":1304,"stimulus":"\u003cblockquote\u003e\n  \u003cp\u003eNow the next anagram will be shown to you. \u003cbr\u003e\u003cbr\u003e Press 'v' to view the next anagram.\u003c/p\u003e\n\u003c/blockquote\u003e","key_press":86,"trial_type":"html-keyboard-response","trial_index":10,"time_elapsed":64853,"internal_node_id":"0.0-3.0-7.0","responseType":"finish","participantID":"xepetbwcl5glb3ho5nmx2no9f5htv9oq","conditionNumber":1},{"rt":null,"stimulus":"\u003cblockquote\u003e\n  \u003ch1 id=\"pitn\"\u003ePITN\u003c/h1\u003e\n  \u003cp\u003e\u003cbr\u003e\u003c/p\u003e\n\u003c/blockquote\u003e","key_press":null,"trial_type":"html-keyboard-response","trial_index":11,"time_elapsed":79857,"internal_node_id":"0.0-3.0-8.0","responseType":"finish","participantID":"xepetbwcl5glb3ho5nmx2no9f5htv9oq","conditionNumber":1},{"rt":2489,"responses":"{\"Q0\":\"\"}","trial_type":"survey-text","trial_index":12,"time_elapsed":82349,"internal_node_id":"0.0-3.0-9.0","responseType":"finish","participantID":"xepetbwcl5glb3ho5nmx2no9f5htv9oq","conditionNumber":1},{"rt":1968,"responses":"{\"Q0\":2}","trial_type":"survey-likert","trial_index":13,"time_elapsed":84321,"internal_node_id":"0.0-3.0-10.0","responseType":"finish","participantID":"xepetbwcl5glb3ho5nmx2no9f5htv9oq","conditionNumber":1},{"rt":1110,"stimulus":"\u003cblockquote\u003e\n  \u003cp\u003eNow the next anagram will be shown to you. \u003cbr\u003e\u003cbr\u003e Press 'v' to view the next anagram.\u003c/p\u003e\n\u003c/blockquote\u003e","key_press":86,"trial_type":"html-keyboard-response","trial_index":14,"time_elapsed":85434,"internal_node_id":"0.0-3.0-11.0","responseType":"finish","participantID":"xepetbwcl5glb3ho5nmx2no9f5htv9oq","conditionNumber":1},{"rt":null,"stimulus":"\u003cblockquote\u003e\n  \u003ch1 id=\"srto\"\u003eSRTO\u003c/h1\u003e\n  \u003cp\u003e\u003cbr\u003e\u003c/p\u003e\n\u003c/blockquote\u003e","key_press":null,"trial_type":"html-keyboard-response","trial_index":15,"time_elapsed":100439,"internal_node_id":"0.0-3.0-12.0","responseType":"finish","participantID":"xepetbwcl5glb3ho5nmx2no9f5htv9oq","conditionNumber":1},{"rt":7555,"responses":"{\"Q0\":\"sort\"}","trial_type":"survey-text","trial_index":16,"time_elapsed":107997,"internal_node_id":"0.0-3.0-13.0","responseType":"finish","participantID":"xepetbwcl5glb3ho5nmx2no9f5htv9oq","conditionNumber":1},{"rt":3629,"responses":"{\"Q0\":5}","trial_type":"survey-likert","trial_index":17,"time_elapsed":111630,"internal_node_id":"0.0-3.0-14.0","responseType":"finish","participantID":"xepetbwcl5glb3ho5nmx2no9f5htv9oq","conditionNumber":1},{"rt":25286,"stimulus":"\u003cblockquote\u003e\n  \u003cp\u003eNow the next anagram will be shown to you. \u003cbr\u003e\u003cbr\u003e Press 'v' to view the next anagram.\u003c/p\u003e\n\u003c/blockquote\u003e","key_press":86,"trial_type":"html-keyboard-response","trial_index":18,"time_elapsed":136919,"internal_node_id":"0.0-3.0-15.0","responseType":"finish","participantID":"xepetbwcl5glb3ho5nmx2no9f5htv9oq","conditionNumber":1},{"rt":null,"stimulus":"\u003cblockquote\u003e\n  \u003ch1 id=\"dleta\"\u003eDLETA\u003c/h1\u003e\n  \u003cp\u003e\u003cbr\u003e\u003c/p\u003e\n\u003c/blockquote\u003e","key_press":null,"trial_type":"html-keyboard-response","trial_index":19,"time_elapsed":151922,"internal_node_id":"0.0-3.0-16.0","responseType":"finish","participantID":"xepetbwcl5glb3ho5nmx2no9f5htv9oq","conditionNumber":1},{"rt":3720,"responses":"{\"Q0\":\"delta\"}","trial_type":"survey-text","trial_index":20,"time_elapsed":155647,"internal_node_id":"0.0-3.0-17.0","responseType":"finish","participantID":"xepetbwcl5glb3ho5nmx2no9f5htv9oq","conditionNumber":1},{"rt":6377,"responses":"{\"Q0\":0}","trial_type":"survey-likert","trial_index":21,"time_elapsed":162032,"internal_node_id":"0.0-4.0-0.0","responseType":"finish","participantID":"xepetbwcl5glb3ho5nmx2no9f5htv9oq","conditionNumber":1},{"rt":2833,"responses":"{\"Q0\":4}","trial_type":"survey-likert","trial_index":22,"time_elapsed":164872,"internal_node_id":"0.0-4.0-0.1","responseType":"finish","participantID":"xepetbwcl5glb3ho5nmx2no9f5htv9oq","conditionNumber":1},{"rt":7686,"responses":"{\"Q0\":2}","trial_type":"survey-likert","trial_index":23,"time_elapsed":172563,"internal_node_id":"0.0-4.0-0.2","responseType":"finish","participantID":"xepetbwcl5glb3ho5nmx2no9f5htv9oq","conditionNumber":1}],"__v":0}
{"_id":{"$oid":"5ccdddd338066a000441ca8a"},"data":{"responseType":"start","participantID":"1tkdx97hrv0ozphmccawq54ysobwygpq","conditionNumber":0},"__v":0}
{"_id":{"$oid":"5ccddde038066a000441ca8b"},"data":[{"rt":8703,"responses":"{\"Q0\":\" I consent to participate\"}","trial_type":"survey-multi-choice","trial_index":0,"time_elapsed":8709,"internal_node_id":"0.0-0.0","responseType":"finish","participantID":"mc7m1yejhzmwyhp9ew61du4l1guyw0yv","conditionNumber":1},{"trial_type":"call-function","trial_index":1,"time_elapsed":8713,"internal_node_id":"0.0-1.0","responseType":"finish","participantID":"mc7m1yejhzmwyhp9ew61du4l1guyw0yv","conditionNumber":1},{"view_history":"[{\"page_index\":0,\"viewing_time\":3176},{\"page_index\":1,\"viewing_time\":1607},{\"page_index\":2,\"viewing_time\":3233}]","rt":8016,"trial_type":"instructions","trial_index":2,"time_elapsed":16729,"internal_node_id":"0.0-2.0","responseType":"finish","participantID":"mc7m1yejhzmwyhp9ew61du4l1guyw0yv","conditionNumber":1},{"rt":null,"stimulus":"\u003cblockquote\u003e\n  \u003ch1 id=\"orod\"\u003eOROD\u003c/h1\u003e\n  \u003cp\u003e\u003cbr\u003e\u003c/p\u003e\n\u003c/blockquote\u003e","key_press":null,"trial_type":"html-keyboard-response","trial_index":3,"time_elapsed":31732,"internal_node_id":"0.0-3.0-0.0","responseType":"finish","participantID":"mc7m1yejhzmwyhp9ew61du4l1guyw0yv","conditionNumber":1},{"rt":3627,"responses":"{\"Q0\":\"door\"}","trial_type":"survey-text","trial_index":4,"time_elapsed":35361,"internal_node_id":"0.0-3.0-1.0","responseType":"finish","participantID":"mc7m1yejhzmwyhp9ew61du4l1guyw0yv","conditionNumber":1},{"rt":4882,"responses":"{\"Q0\":4}","trial_type":"survey-likert","trial_index":5,"time_elapsed":40244,"internal_node_id":"0.0-3.0-2.0","responseType":"finish","participantID":"mc7m1yejhzmwyhp9ew61du4l1guyw0yv","conditionNumber":1},{"rt":2376,"stimulus":"\u003cblockquote\u003e\n  \u003cp\u003eNow the next anagram will be shown to you. \u003cbr\u003e\u003cbr\u003e Press 'v' to view the next anagram.\u003c/p\u003e\n\u003c/blockquote\u003e","key_press":86,"trial_type":"html-keyboard-response","trial_index":6,"time_elapsed":42622,"internal_node_id":"0.0-3.0-3.0","responseType":"finish","participantID":"mc7m1yejhzmwyhp9ew61du4l1guyw0yv","conditionNumber":1},{"rt":null,"stimulus":"\u003cblockquote\u003e\n  \u003ch1 id=\"bluk\"\u003eBLUK\u003c/h1\u003e\n  \u003cp\u003e\u003cbr\u003e\u003c/p\u003e\n\u003c/blockquote\u003e","key_press":null,"trial_type":"html-keyboard-response","trial_index":7,"time_elapsed":57625,"internal_node_id":"0.0-3.0-4.0","responseType":"finish","participantID":"mc7m1yejhzmwyhp9ew61du4l1guyw0yv","conditionNumber":1},{"rt":4608,"responses":"{\"Q0\":\"bulk\"}","trial_type":"survey-text","trial_index":8,"time_elapsed":62233,"internal_node_id":"0.0-3.0-5.0","responseType":"finish","participantID":"mc7m1yejhzmwyhp9ew61du4l1guyw0yv","conditionNumber":1},{"rt":3880,"responses":"{\"Q0\":0}","trial_type":"survey-likert","trial_index":9,"time_elapsed":66116,"internal_node_id":"0.0-3.0-6.0","responseType":"finish","participantID":"mc7m1yejhzmwyhp9ew61du4l1guyw0yv","conditionNumber":1},{"rt":1378,"stimulus":"\u003cblockquote\u003e\n  \u003cp\u003eNow the next anagram will be shown to you. \u003cbr\u003e\u003cbr\u003e Press 'v' to view the next anagram.\u003c/p\u003e\n\u003c/blockquote\u003e","key_press":86,"trial_type":"html-keyboard-response","trial_index":10,"time_elapsed":67496,"internal_node_id":"0.0-3.0-7.0","responseType":"finish","participantID":"mc7m1yejhzmwyhp9ew61du4l1guyw0yv","conditionNumber":1},{"rt":null,"stimulus":"\u003cblockquote\u003e\n  \u003ch1 id=\"pitn\"\u003ePITN\u003c/h1\u003e\n  \u003cp\u003e\u003cbr\u003e\u003c/p\u003e\n\u003c/blockquote\u003e","key_press":null,"trial_type":"html-keyboard-response","trial_index":11,"time_elapsed":82497,"internal_node_id":"0.0-3.0-8.0","responseType":"finish","participantID":"mc7m1yejhzmwyhp9ew61du4l1guyw0yv","conditionNumber":1},{"rt":4061,"responses":"{\"Q0\":\"pint\"}","trial_type":"survey-text","trial_index":12,"time_elapsed":86559,"internal_node_id":"0.0-3.0-9.0","responseType":"finish","participantID":"mc7m1yejhzmwyhp9ew61du4l1guyw0yv","conditionNumber":1},{"rt":2905,"responses":"{\"Q0\":0}","trial_type":"survey-likert","trial_index":13,"time_elapsed":89466,"internal_node_id":"0.0-3.0-10.0","responseType":"finish","participantID":"mc7m1yejhzmwyhp9ew61du4l1guyw0yv","conditionNumber":1},{"rt":2384,"stimulus":"\u003cblockquote\u003e\n  \u003cp\u003eNow the next anagram will be shown to you. \u003cbr\u003e\u003cbr\u003e Press 'v' to view the next anagram.\u003c/p\u003e\n\u003c/blockquote\u003e","key_press":86,"trial_type":"html-keyboard-response","trial_index":14,"time_elapsed":91851,"internal_node_id":"0.0-3.0-11.0","responseType":"finish","participantID":"mc7m1yejhzmwyhp9ew61du4l1guyw0yv","conditionNumber":1},{"rt":null,"stimulus":"\u003cblockquote\u003e\n  \u003ch1 id=\"srto\"\u003eSRTO\u003c/h1\u003e\n  \u003cp\u003e\u003cbr\u003e\u003c/p\u003e\n\u003c/blockquote\u003e","key_press":null,"trial_type":"html-keyboard-response","trial_index":15,"time_elapsed":106854,"internal_node_id":"0.0-3.0-12.0","responseType":"finish","participantID":"mc7m1yejhzmwyhp9ew61du4l1guyw0yv","conditionNumber":1},{"rt":3528,"responses":"{\"Q0\":\"sort\"}","trial_type":"survey-text","trial_index":16,"time_elapsed":110382,"internal_node_id":"0.0-3.0-13.0","responseType":"finish","participantID":"mc7m1yejhzmwyhp9ew61du4l1guyw0yv","conditionNumber":1},{"rt":2337,"responses":"{\"Q0\":0}","trial_type":"survey-likert","trial_index":17,"time_elapsed":112719,"internal_node_id":"0.0-3.0-14.0","responseType":"finish","participantID":"mc7m1yejhzmwyhp9ew61du4l1guyw0yv","conditionNumber":1},{"rt":1486,"stimulus":"\u003cblockquote\u003e\n  \u003cp\u003eNow the next anagram will be shown to you. \u003cbr\u003e\u003cbr\u003e Press 'v' to view the next anagram.\u003c/p\u003e\n\u003c/blockquote\u003e","key_press":86,"trial_type":"html-keyboard-response","trial_index":18,"time_elapsed":114207,"internal_node_id":"0.0-3.0-15.0","responseType":"finish","participantID":"mc7m1yejhzmwyhp9ew61du4l1guyw0yv","conditionNumber":1},{"rt":null,"stimulus":"\u003cblockquote\u003e\n  \u003ch1 id=\"dleta\"\u003eDLETA\u003c/h1\u003e\n  \u003cp\u003e\u003cbr\u003e\u003c/p\u003e\n\u003c/blockquote\u003e","key_press":null,"trial_type":"html-keyboard-response","trial_index":19,"time_elapsed":129210,"internal_node_id":"0.0-3.0-16.0","responseType":"finish","participantID":"mc7m1yejhzmwyhp9ew61du4l1guyw0yv","conditionNumber":1},{"rt":3542,"responses":"{\"Q0\":\"delta\"}","trial_type":"survey-text","trial_index":20,"time_elapsed":132752,"internal_node_id":"0.0-3.0-17.0","responseType":"finish","participantID":"mc7m1yejhzmwyhp9ew61du4l1guyw0yv","conditionNumber":1},{"rt":4258,"responses":"{\"Q0\":1}","trial_type":"survey-likert","trial_index":21,"time_elapsed":137012,"internal_node_id":"0.0-4.0-0.0","responseType":"finish","participantID":"mc7m1yejhzmwyhp9ew61du4l1guyw0yv","conditionNumber":1},{"rt":3766,"responses":"{\"Q0\":0}","trial_type":"survey-likert","trial_index":22,"time_elapsed":140781,"internal_node_id":"0.0-4.0-0.1","responseType":"finish","participantID":"mc7m1yejhzmwyhp9ew61du4l1guyw0yv","conditionNumber":1},{"rt":9888,"responses":"{\"Q0\":0}","trial_type":"survey-likert","trial_index":23,"time_elapsed":150671,"internal_node_id":"0.0-4.0-0.2","responseType":"finish","participantID":"mc7m1yejhzmwyhp9ew61du4l1guyw0yv","conditionNumber":1}],"__v":0}
{"_id":{"$oid":"5ccddde338066a000441ca8c"},"data":[{"rt":13200,"responses":"{\"Q0\":\" I consent to participate\"}","trial_type":"survey-multi-choice","trial_index":0,"time_elapsed":13203,"internal_node_id":"0.0-0.0","responseType":"finish","participantID":"qud9r93pmolm1yybsyjwm7py2m8jlyc3","conditionNumber":0},{"trial_type":"call-function","trial_index":1,"time_elapsed":13206,"internal_node_id":"0.0-1.0","responseType":"finish","participantID":"qud9r93pmolm1yybsyjwm7py2m8jlyc3","conditionNumber":0},{"view_history":"[{\"page_index\":0,\"viewing_time\":6259},{\"page_index\":1,\"viewing_time\":8064},{\"page_index\":2,\"viewing_time\":8832}]","rt":23155,"trial_type":"instructions","trial_index":2,"time_elapsed":36362,"internal_node_id":"0.0-2.0","responseType":"finish","participantID":"qud9r93pmolm1yybsyjwm7py2m8jlyc3","conditionNumber":0},{"rt":null,"stimulus":"\u003cblockquote\u003e\n  \u003ch1 id=\"oircnag\"\u003eOIRCNAG\u003c/h1\u003e\n  \u003cp\u003e\u003cbr\u003e\u003c/p\u003e\n\u003c/blockquote\u003e","key_press":null,"trial_type":"html-keyboard-response","trial_index":3,"time_elapsed":51366,"internal_node_id":"0.0-3.0-0.0","responseType":"finish","participantID":"qud9r93pmolm1yybsyjwm7py2m8jlyc3","conditionNumber":0},{"rt":7665,"responses":"{\"Q0\":\"organic\"}","trial_type":"survey-text","trial_index":4,"time_elapsed":59034,"internal_node_id":"0.0-3.0-1.0","responseType":"finish","participantID":"qud9r93pmolm1yybsyjwm7py2m8jlyc3","conditionNumber":0},{"rt":9351,"responses":"{\"Q0\":4}","trial_type":"survey-likert","trial_index":5,"time_elapsed":68387,"internal_node_id":"0.0-3.0-2.0","responseType":"finish","participantID":"qud9r93pmolm1yybsyjwm7py2m8jlyc3","conditionNumber":0},{"rt":2746,"stimulus":"\u003cblockquote\u003e\n  \u003cp\u003eNow the next anagram will be shown to you. \u003cbr\u003e\u003cbr\u003e Press 'v' to view the next anagram.\u003c/p\u003e\n\u003c/blockquote\u003e","key_press":86,"trial_type":"html-keyboard-response","trial_index":6,"time_elapsed":71134,"internal_node_id":"0.0-3.0-3.0","responseType":"finish","participantID":"qud9r93pmolm1yybsyjwm7py2m8jlyc3","conditionNumber":0},{"rt":null,"stimulus":"\u003cblockquote\u003e\n  \u003ch1 id=\"hnatuyg\"\u003eHNATUYG\u003c/h1\u003e\n  \u003cp\u003e\u003cbr\u003e\u003c/p\u003e\n\u003c/blockquote\u003e","key_press":null,"trial_type":"html-keyboard-response","trial_index":7,"time_elapsed":86137,"internal_node_id":"0.0-3.0-4.0","responseType":"finish","participantID":"qud9r93pmolm1yybsyjwm7py2m8jlyc3","conditionNumber":0},{"rt":15001,"responses":"{\"Q0\":\"haughty\"}","trial_type":"survey-text","trial_index":8,"time_elapsed":101139,"internal_node_id":"0.0-3.0-5.0","responseType":"finish","participantID":"qud9r93pmolm1yybsyjwm7py2m8jlyc3","conditionNumber":0},{"rt":5582,"responses":"{\"Q0\":3}","trial_type":"survey-likert","trial_index":9,"time_elapsed":106722,"internal_node_id":"0.0-3.0-6.0","responseType":"finish","participantID":"qud9r93pmolm1yybsyjwm7py2m8jlyc3","conditionNumber":0},{"rt":1779,"stimulus":"\u003cblockquote\u003e\n  \u003cp\u003eNow the next anagram will be shown to you. \u003cbr\u003e\u003cbr\u003e Press 'v' to view the next anagram.\u003c/p\u003e\n\u003c/blockquote\u003e","key_press":86,"trial_type":"html-keyboard-response","trial_index":10,"time_elapsed":108502,"internal_node_id":"0.0-3.0-7.0","responseType":"finish","participantID":"qud9r93pmolm1yybsyjwm7py2m8jlyc3","conditionNumber":0},{"rt":null,"stimulus":"\u003cblockquote\u003e\n  \u003ch1 id=\"khaomcm\"\u003eKHAOMCM\u003c/h1\u003e\n  \u003cp\u003e\u003cbr\u003e\u003c/p\u003e\n\u003c/blockquote\u003e","key_press":null,"trial_type":"html-keyboard-response","trial_index":11,"time_elapsed":123504,"internal_node_id":"0.0-3.0-8.0","responseType":"finish","participantID":"qud9r93pmolm1yybsyjwm7py2m8jlyc3","conditionNumber":0},{"rt":6185,"responses":"{\"Q0\":\"hammock\"}","trial_type":"survey-text","trial_index":12,"time_elapsed":129690,"internal_node_id":"0.0-3.0-9.0","responseType":"finish","participantID":"qud9r93pmolm1yybsyjwm7py2m8jlyc3","conditionNumber":0},{"rt":4743,"responses":"{\"Q0\":4}","trial_type":"survey-likert","trial_index":13,"time_elapsed":134434,"internal_node_id":"0.0-3.0-10.0","responseType":"finish","participantID":"qud9r93pmolm1yybsyjwm7py2m8jlyc3","conditionNumber":0},{"rt":1746,"stimulus":"\u003cblockquote\u003e\n  \u003cp\u003eNow the next anagram will be shown to you. \u003cbr\u003e\u003cbr\u003e Press 'v' to view the next anagram.\u003c/p\u003e\n\u003c/blockquote\u003e","key_press":86,"trial_type":"html-keyboard-response","trial_index":14,"time_elapsed":136181,"internal_node_id":"0.0-3.0-11.0","responseType":"finish","participantID":"qud9r93pmolm1yybsyjwm7py2m8jlyc3","conditionNumber":0},{"rt":null,"stimulus":"\u003cblockquote\u003e\n  \u003ch1 id=\"dalrbeu\"\u003eDALRBEU\u003c/h1\u003e\n  \u003cp\u003e\u003cbr\u003e\u003c/p\u003e\n\u003c/blockquote\u003e","key_press":null,"trial_type":"html-keyboard-response","trial_index":15,"time_elapsed":151184,"internal_node_id":"0.0-3.0-12.0","responseType":"finish","participantID":"qud9r93pmolm1yybsyjwm7py2m8jlyc3","conditionNumber":0},{"rt":10809,"responses":"{\"Q0\":\"blared\"}","trial_type":"survey-text","trial_index":16,"time_elapsed":161994,"internal_node_id":"0.0-3.0-13.0","responseType":"finish","participantID":"qud9r93pmolm1yybsyjwm7py2m8jlyc3","conditionNumber":0},{"rt":2623,"responses":"{\"Q0\":1}","trial_type":"survey-likert","trial_index":17,"time_elapsed":164618,"internal_node_id":"0.0-3.0-14.0","responseType":"finish","participantID":"qud9r93pmolm1yybsyjwm7py2m8jlyc3","conditionNumber":0},{"rt":1650,"stimulus":"\u003cblockquote\u003e\n  \u003cp\u003eNow the next anagram will be shown to you. \u003cbr\u003e\u003cbr\u003e Press 'v' to view the next anagram.\u003c/p\u003e\n\u003c/blockquote\u003e","key_press":86,"trial_type":"html-keyboard-response","trial_index":18,"time_elapsed":166269,"internal_node_id":"0.0-3.0-15.0","responseType":"finish","participantID":"qud9r93pmolm1yybsyjwm7py2m8jlyc3","conditionNumber":0},{"rt":null,"stimulus":"\u003cblockquote\u003e\n  \u003ch1 id=\"dleta\"\u003eDLETA\u003c/h1\u003e\n  \u003cp\u003e\u003cbr\u003e\u003c/p\u003e\n\u003c/blockquote\u003e","key_press":null,"trial_type":"html-keyboard-response","trial_index":19,"time_elapsed":181270,"internal_node_id":"0.0-3.0-16.0","responseType":"finish","participantID":"qud9r93pmolm1yybsyjwm7py2m8jlyc3","conditionNumber":0},{"rt":5459,"responses":"{\"Q0\":\"dealt\"}","trial_type":"survey-text","trial_index":20,"time_elapsed":186730,"internal_node_id":"0.0-3.0-17.0","responseType":"finish","participantID":"qud9r93pmolm1yybsyjwm7py2m8jlyc3","conditionNumber":0},{"rt":5526,"responses":"{\"Q0\":1}","trial_type":"survey-likert","trial_index":21,"time_elapsed":192258,"internal_node_id":"0.0-4.0-0.0","responseType":"finish","participantID":"qud9r93pmolm1yybsyjwm7py2m8jlyc3","conditionNumber":0},{"rt":3575,"responses":"{\"Q0\":4}","trial_type":"survey-likert","trial_index":22,"time_elapsed":195834,"internal_node_id":"0.0-4.0-0.1","responseType":"finish","participantID":"qud9r93pmolm1yybsyjwm7py2m8jlyc3","conditionNumber":0},{"rt":17663,"responses":"{\"Q0\":4}","trial_type":"survey-likert","trial_index":23,"time_elapsed":213498,"internal_node_id":"0.0-4.0-0.2","responseType":"finish","participantID":"qud9r93pmolm1yybsyjwm7py2m8jlyc3","conditionNumber":0}],"__v":0}
{"_id":{"$oid":"5ccdddeb38066a000441ca8d"},"data":[{"rt":8171,"responses":"{\"Q0\":\" I consent to participate\"}","trial_type":"survey-multi-choice","trial_index":0,"time_elapsed":8175,"internal_node_id":"0.0-0.0","responseType":"finish","participantID":"xlul9cor6gobj21a5ovzfll4ovl4dyls","conditionNumber":1},{"trial_type":"call-function","trial_index":1,"time_elapsed":8179,"internal_node_id":"0.0-1.0","responseType":"finish","participantID":"xlul9cor6gobj21a5ovzfll4ovl4dyls","conditionNumber":1},{"view_history":"[{\"page_index\":0,\"viewing_time\":6524},{\"page_index\":1,\"viewing_time\":10735},{\"page_index\":2,\"viewing_time\":12112}]","rt":29371,"trial_type":"instructions","trial_index":2,"time_elapsed":37550,"internal_node_id":"0.0-2.0","responseType":"finish","participantID":"xlul9cor6gobj21a5ovzfll4ovl4dyls","conditionNumber":1},{"rt":null,"stimulus":"\u003cblockquote\u003e\n  \u003ch1 id=\"orod\"\u003eOROD\u003c/h1\u003e\n  \u003cp\u003e\u003cbr\u003e\u003c/p\u003e\n\u003c/blockquote\u003e","key_press":null,"trial_type":"html-keyboard-response","trial_index":3,"time_elapsed":52552,"internal_node_id":"0.0-3.0-0.0","responseType":"finish","participantID":"xlul9cor6gobj21a5ovzfll4ovl4dyls","conditionNumber":1},{"rt":15003,"responses":"{\"Q0\":\"DOOR\"}","trial_type":"survey-text","trial_index":4,"time_elapsed":67557,"internal_node_id":"0.0-3.0-1.0","responseType":"finish","participantID":"xlul9cor6gobj21a5ovzfll4ovl4dyls","conditionNumber":1},{"rt":5511,"responses":"{\"Q0\":6}","trial_type":"survey-likert","trial_index":5,"time_elapsed":73070,"internal_node_id":"0.0-3.0-2.0","responseType":"finish","participantID":"xlul9cor6gobj21a5ovzfll4ovl4dyls","conditionNumber":1},{"rt":4801,"stimulus":"\u003cblockquote\u003e\n  \u003cp\u003eNow the next anagram will be shown to you. \u003cbr\u003e\u003cbr\u003e Press 'v' to view the next anagram.\u003c/p\u003e\n\u003c/blockquote\u003e","key_press":86,"trial_type":"html-keyboard-response","trial_index":6,"time_elapsed":77872,"internal_node_id":"0.0-3.0-3.0","responseType":"finish","participantID":"xlul9cor6gobj21a5ovzfll4ovl4dyls","conditionNumber":1},{"rt":null,"stimulus":"\u003cblockquote\u003e\n  \u003ch1 id=\"bluk\"\u003eBLUK\u003c/h1\u003e\n  \u003cp\u003e\u003cbr\u003e\u003c/p\u003e\n\u003c/blockquote\u003e","key_press":null,"trial_type":"html-keyboard-response","trial_index":7,"time_elapsed":92876,"internal_node_id":"0.0-3.0-4.0","responseType":"finish","participantID":"xlul9cor6gobj21a5ovzfll4ovl4dyls","conditionNumber":1},{"rt":12352,"responses":"{\"Q0\":\"BULK\"}","trial_type":"survey-text","trial_index":8,"time_elapsed":105229,"internal_node_id":"0.0-3.0-5.0","responseType":"finish","participantID":"xlul9cor6gobj21a5ovzfll4ovl4dyls","conditionNumber":1},{"rt":3591,"responses":"{\"Q0\":6}","trial_type":"survey-likert","trial_index":9,"time_elapsed":108822,"internal_node_id":"0.0-3.0-6.0","responseType":"finish","participantID":"xlul9cor6gobj21a5ovzfll4ovl4dyls","conditionNumber":1},{"rt":2017,"stimulus":"\u003cblockquote\u003e\n  \u003cp\u003eNow the next anagram will be shown to you. \u003cbr\u003e\u003cbr\u003e Press 'v' to view the next anagram.\u003c/p\u003e\n\u003c/blockquote\u003e","key_press":86,"trial_type":"html-keyboard-response","trial_index":10,"time_elapsed":110839,"internal_node_id":"0.0-3.0-7.0","responseType":"finish","participantID":"xlul9cor6gobj21a5ovzfll4ovl4dyls","conditionNumber":1},{"rt":null,"stimulus":"\u003cblockquote\u003e\n  \u003ch1 id=\"pitn\"\u003ePITN\u003c/h1\u003e\n  \u003cp\u003e\u003cbr\u003e\u003c/p\u003e\n\u003c/blockquote\u003e","key_press":null,"trial_type":"html-keyboard-response","trial_index":11,"time_elapsed":125841,"internal_node_id":"0.0-3.0-8.0","responseType":"finish","participantID":"xlul9cor6gobj21a5ovzfll4ovl4dyls","conditionNumber":1},{"rt":9835,"responses":"{\"Q0\":\"\"}","trial_type":"survey-text","trial_index":12,"time_elapsed":135677,"internal_node_id":"0.0-3.0-9.0","responseType":"finish","participantID":"xlul9cor6gobj21a5ovzfll4ovl4dyls","conditionNumber":1},{"rt":3295,"responses":"{\"Q0\":3}","trial_type":"survey-likert","trial_index":13,"time_elapsed":138973,"internal_node_id":"0.0-3.0-10.0","responseType":"finish","participantID":"xlul9cor6gobj21a5ovzfll4ovl4dyls","conditionNumber":1},{"rt":2097,"stimulus":"\u003cblockquote\u003e\n  \u003cp\u003eNow the next anagram will be shown to you. \u003cbr\u003e\u003cbr\u003e Press 'v' to view the next anagram.\u003c/p\u003e\n\u003c/blockquote\u003e","key_press":86,"trial_type":"html-keyboard-response","trial_index":14,"time_elapsed":141071,"internal_node_id":"0.0-3.0-11.0","responseType":"finish","participantID":"xlul9cor6gobj21a5ovzfll4ovl4dyls","conditionNumber":1},{"rt":null,"stimulus":"\u003cblockquote\u003e\n  \u003ch1 id=\"srto\"\u003eSRTO\u003c/h1\u003e\n  \u003cp\u003e\u003cbr\u003e\u003c/p\u003e\n\u003c/blockquote\u003e","key_press":null,"trial_type":"html-keyboard-response","trial_index":15,"time_elapsed":156073,"internal_node_id":"0.0-3.0-12.0","responseType":"finish","participantID":"xlul9cor6gobj21a5ovzfll4ovl4dyls","conditionNumber":1},{"rt":15000,"responses":"{\"Q0\":\"ROTS\"}","trial_type":"survey-text","trial_index":16,"time_elapsed":171075,"internal_node_id":"0.0-3.0-13.0","responseType":"finish","participantID":"xlul9cor6gobj21a5ovzfll4ovl4dyls","conditionNumber":1},{"rt":3537,"responses":"{\"Q0\":1}","trial_type":"survey-likert","trial_index":17,"time_elapsed":174613,"internal_node_id":"0.0-3.0-14.0","responseType":"finish","participantID":"xlul9cor6gobj21a5ovzfll4ovl4dyls","conditionNumber":1},{"rt":1672,"stimulus":"\u003cblockquote\u003e\n  \u003cp\u003eNow the next anagram will be shown to you. \u003cbr\u003e\u003cbr\u003e Press 'v' to view the next anagram.\u003c/p\u003e\n\u003c/blockquote\u003e","key_press":86,"trial_type":"html-keyboard-response","trial_index":18,"time_elapsed":176287,"internal_node_id":"0.0-3.0-15.0","responseType":"finish","participantID":"xlul9cor6gobj21a5ovzfll4ovl4dyls","conditionNumber":1},{"rt":null,"stimulus":"\u003cblockquote\u003e\n  \u003ch1 id=\"dleta\"\u003eDLETA\u003c/h1\u003e\n  \u003cp\u003e\u003cbr\u003e\u003c/p\u003e\n\u003c/blockquote\u003e","key_press":null,"trial_type":"html-keyboard-response","trial_index":19,"time_elapsed":191289,"internal_node_id":"0.0-3.0-16.0","responseType":"finish","participantID":"xlul9cor6gobj21a5ovzfll4ovl4dyls","conditionNumber":1},{"rt":8763,"responses":"{\"Q0\":\"DELTA\"}","trial_type":"survey-text","trial_index":20,"time_elapsed":200053,"internal_node_id":"0.0-3.0-17.0","responseType":"finish","participantID":"xlul9cor6gobj21a5ovzfll4ovl4dyls","conditionNumber":1},{"rt":5855,"responses":"{\"Q0\":1}","trial_type":"survey-likert","trial_index":21,"time_elapsed":205909,"internal_node_id":"0.0-4.0-0.0","responseType":"finish","participantID":"xlul9cor6gobj21a5ovzfll4ovl4dyls","conditionNumber":1},{"rt":4047,"responses":"{\"Q0\":6}","trial_type":"survey-likert","trial_index":22,"time_elapsed":209957,"internal_node_id":"0.0-4.0-0.1","responseType":"finish","participantID":"xlul9cor6gobj21a5ovzfll4ovl4dyls","conditionNumber":1},{"rt":10567,"responses":"{\"Q0\":5}","trial_type":"survey-likert","trial_index":23,"time_elapsed":220525,"internal_node_id":"0.0-4.0-0.2","responseType":"finish","participantID":"xlul9cor6gobj21a5ovzfll4ovl4dyls","conditionNumber":1}],"__v":0}
{"_id":{"$oid":"5ccdde0238066a000441ca8e"},"data":{"responseType":"start","participantID":"dlbra0olv3baw0x4evs2wj51y2dksrcn","conditionNumber":0},"__v":0}
{"_id":{"$oid":"5ccdde0738066a000441ca8f"},"data":{"responseType":"start","participantID":"pfk9u8qqtglc39nr4pbu31gxfavrx6jl","conditionNumber":1},"__v":0}
{"_id":{"$oid":"5ccdde3a38066a000441ca90"},"data":[{"rt":42066,"responses":"{\"Q0\":\" I consent to participate\"}","trial_type":"survey-multi-choice","trial_index":0,"time_elapsed":42069,"internal_node_id":"0.0-0.0","responseType":"finish","participantID":"c56jw0el7w600sw6cwdpc4b2fslcqafb","conditionNumber":0},{"trial_type":"call-function","trial_index":1,"time_elapsed":42074,"internal_node_id":"0.0-1.0","responseType":"finish","participantID":"c56jw0el7w600sw6cwdpc4b2fslcqafb","conditionNumber":0},{"view_history":"[{\"page_index\":0,\"viewing_time\":6451},{\"page_index\":1,\"viewing_time\":26562},{\"page_index\":2,\"viewing_time\":5145}]","rt":38158,"trial_type":"instructions","trial_index":2,"time_elapsed":80232,"internal_node_id":"0.0-2.0","responseType":"finish","participantID":"c56jw0el7w600sw6cwdpc4b2fslcqafb","conditionNumber":0},{"rt":null,"stimulus":"\u003cblockquote\u003e\n  \u003ch1 id=\"oircnag\"\u003eOIRCNAG\u003c/h1\u003e\n  \u003cp\u003e\u003cbr\u003e\u003c/p\u003e\n\u003c/blockquote\u003e","key_press":null,"trial_type":"html-keyboard-response","trial_index":3,"time_elapsed":95235,"internal_node_id":"0.0-3.0-0.0","responseType":"finish","participantID":"c56jw0el7w600sw6cwdpc4b2fslcqafb","conditionNumber":0},{"rt":6450,"responses":"{\"Q0\":\"organic\"}","trial_type":"survey-text","trial_index":4,"time_elapsed":101686,"internal_node_id":"0.0-3.0-1.0","responseType":"finish","participantID":"c56jw0el7w600sw6cwdpc4b2fslcqafb","conditionNumber":0},{"rt":5308,"responses":"{\"Q0\":5}","trial_type":"survey-likert","trial_index":5,"time_elapsed":106996,"internal_node_id":"0.0-3.0-2.0","responseType":"finish","participantID":"c56jw0el7w600sw6cwdpc4b2fslcqafb","conditionNumber":0},{"rt":2585,"stimulus":"\u003cblockquote\u003e\n  \u003cp\u003eNow the next anagram will be shown to you. \u003cbr\u003e\u003cbr\u003e Press 'v' to view the next anagram.\u003c/p\u003e\n\u003c/blockquote\u003e","key_press":86,"trial_type":"html-keyboard-response","trial_index":6,"time_elapsed":109582,"internal_node_id":"0.0-3.0-3.0","responseType":"finish","participantID":"c56jw0el7w600sw6cwdpc4b2fslcqafb","conditionNumber":0},{"rt":null,"stimulus":"\u003cblockquote\u003e\n  \u003ch1 id=\"hnatuyg\"\u003eHNATUYG\u003c/h1\u003e\n  \u003cp\u003e\u003cbr\u003e\u003c/p\u003e\n\u003c/blockquote\u003e","key_press":null,"trial_type":"html-keyboard-response","trial_index":7,"time_elapsed":124583,"internal_node_id":"0.0-3.0-4.0","responseType":"finish","participantID":"c56jw0el7w600sw6cwdpc4b2fslcqafb","conditionNumber":0},{"rt":15002,"responses":"{\"Q0\":\"\"}","trial_type":"survey-text","trial_index":8,"time_elapsed":139585,"internal_node_id":"0.0-3.0-5.0","responseType":"finish","participantID":"c56jw0el7w600sw6cwdpc4b2fslcqafb","conditionNumber":0},{"rt":3758,"responses":"{\"Q0\":3}","trial_type":"survey-likert","trial_index":9,"time_elapsed":143343,"internal_node_id":"0.0-3.0-6.0","responseType":"finish","participantID":"c56jw0el7w600sw6cwdpc4b2fslcqafb","conditionNumber":0},{"rt":1262,"stimulus":"\u003cblockquote\u003e\n  \u003cp\u003eNow the next anagram will be shown to you. \u003cbr\u003e\u003cbr\u003e Press 'v' to view the next anagram.\u003c/p\u003e\n\u003c/blockquote\u003e","key_press":86,"trial_type":"html-keyboard-response","trial_index":10,"time_elapsed":144607,"internal_node_id":"0.0-3.0-7.0","responseType":"finish","participantID":"c56jw0el7w600sw6cwdpc4b2fslcqafb","conditionNumber":0},{"rt":null,"stimulus":"\u003cblockquote\u003e\n  \u003ch1 id=\"khaomcm\"\u003eKHAOMCM\u003c/h1\u003e\n  \u003cp\u003e\u003cbr\u003e\u003c/p\u003e\n\u003c/blockquote\u003e","key_press":null,"trial_type":"html-keyboard-response","trial_index":11,"time_elapsed":159607,"internal_node_id":"0.0-3.0-8.0","responseType":"finish","participantID":"c56jw0el7w600sw6cwdpc4b2fslcqafb","conditionNumber":0},{"rt":3879,"responses":"{\"Q0\":\"hammock\"}","trial_type":"survey-text","trial_index":12,"time_elapsed":163487,"internal_node_id":"0.0-3.0-9.0","responseType":"finish","participantID":"c56jw0el7w600sw6cwdpc4b2fslcqafb","conditionNumber":0},{"rt":1945,"responses":"{\"Q0\":4}","trial_type":"survey-likert","trial_index":13,"time_elapsed":165432,"internal_node_id":"0.0-3.0-10.0","responseType":"finish","participantID":"c56jw0el7w600sw6cwdpc4b2fslcqafb","conditionNumber":0},{"rt":1089,"stimulus":"\u003cblockquote\u003e\n  \u003cp\u003eNow the next anagram will be shown to you. \u003cbr\u003e\u003cbr\u003e Press 'v' to view the next anagram.\u003c/p\u003e\n\u003c/blockquote\u003e","key_press":86,"trial_type":"html-keyboard-response","trial_index":14,"time_elapsed":166522,"internal_node_id":"0.0-3.0-11.0","responseType":"finish","participantID":"c56jw0el7w600sw6cwdpc4b2fslcqafb","conditionNumber":0},{"rt":null,"stimulus":"\u003cblockquote\u003e\n  \u003ch1 id=\"dalrbeu\"\u003eDALRBEU\u003c/h1\u003e\n  \u003cp\u003e\u003cbr\u003e\u003c/p\u003e\n\u003c/blockquote\u003e","key_press":null,"trial_type":"html-keyboard-response","trial_index":15,"time_elapsed":181524,"internal_node_id":"0.0-3.0-12.0","responseType":"finish","participantID":"c56jw0el7w600sw6cwdpc4b2fslcqafb","conditionNumber":0},{"rt":15002,"responses":"{\"Q0\":\"\"}","trial_type":"survey-text","trial_index":16,"time_elapsed":196528,"internal_node_id":"0.0-3.0-13.0","responseType":"finish","participantID":"c56jw0el7w600sw6cwdpc4b2fslcqafb","conditionNumber":0},{"rt":4007,"responses":"{\"Q0\":2}","trial_type":"survey-likert","trial_index":17,"time_elapsed":200535,"internal_node_id":"0.0-3.0-14.0","responseType":"finish","participantID":"c56jw0el7w600sw6cwdpc4b2fslcqafb","conditionNumber":0},{"rt":1267,"stimulus":"\u003cblockquote\u003e\n  \u003cp\u003eNow the next anagram will be shown to you. \u003cbr\u003e\u003cbr\u003e Press 'v' to view the next anagram.\u003c/p\u003e\n\u003c/blockquote\u003e","key_press":86,"trial_type":"html-keyboard-response","trial_index":18,"time_elapsed":201802,"internal_node_id":"0.0-3.0-15.0","responseType":"finish","participantID":"c56jw0el7w600sw6cwdpc4b2fslcqafb","conditionNumber":0},{"rt":null,"stimulus":"\u003cblockquote\u003e\n  \u003ch1 id=\"dleta\"\u003eDLETA\u003c/h1\u003e\n  \u003cp\u003e\u003cbr\u003e\u003c/p\u003e\n\u003c/blockquote\u003e","key_press":null,"trial_type":"html-keyboard-response","trial_index":19,"time_elapsed":216803,"internal_node_id":"0.0-3.0-16.0","responseType":"finish","participantID":"c56jw0el7w600sw6cwdpc4b2fslcqafb","conditionNumber":0},{"rt":3807,"responses":"{\"Q0\":\"delta\"}","trial_type":"survey-text","trial_index":20,"time_elapsed":220610,"internal_node_id":"0.0-3.0-17.0","responseType":"finish","participantID":"c56jw0el7w600sw6cwdpc4b2fslcqafb","conditionNumber":0},{"rt":3153,"responses":"{\"Q0\":1}","trial_type":"survey-likert","trial_index":21,"time_elapsed":223764,"internal_node_id":"0.0-4.0-0.0","responseType":"finish","participantID":"c56jw0el7w600sw6cwdpc4b2fslcqafb","conditionNumber":0},{"rt":2875,"responses":"{\"Q0\":4}","trial_type":"survey-likert","trial_index":22,"time_elapsed":226641,"internal_node_id":"0.0-4.0-0.1","responseType":"finish","participantID":"c56jw0el7w600sw6cwdpc4b2fslcqafb","conditionNumber":0},{"rt":8620,"responses":"{\"Q0\":0}","trial_type":"survey-likert","trial_index":23,"time_elapsed":235262,"internal_node_id":"0.0-4.0-0.2","responseType":"finish","participantID":"c56jw0el7w600sw6cwdpc4b2fslcqafb","conditionNumber":0}],"__v":0}
{"_id":{"$oid":"5ccdde4e38066a000441ca91"},"data":{"responseType":"start","participantID":"2q9daofqo6hqlqb9w3oratadqw519rca","conditionNumber":1},"__v":0}
{"_id":{"$oid":"5ccdde6238066a000441ca92"},"data":[{"rt":8707,"responses":"{\"Q0\":\" I consent to participate\"}","trial_type":"survey-multi-choice","trial_index":0,"time_elapsed":8714,"internal_node_id":"0.0-0.0","responseType":"finish","participantID":"1tkdx97hrv0ozphmccawq54ysobwygpq","conditionNumber":0},{"trial_type":"call-function","trial_index":1,"time_elapsed":8721,"internal_node_id":"0.0-1.0","responseType":"finish","participantID":"1tkdx97hrv0ozphmccawq54ysobwygpq","conditionNumber":0},{"view_history":"[{\"page_index\":0,\"viewing_time\":4130},{\"page_index\":1,\"viewing_time\":1615},{\"page_index\":2,\"viewing_time\":4442}]","rt":10188,"trial_type":"instructions","trial_index":2,"time_elapsed":18910,"internal_node_id":"0.0-2.0","responseType":"finish","participantID":"1tkdx97hrv0ozphmccawq54ysobwygpq","conditionNumber":0},{"rt":null,"stimulus":"\u003cblockquote\u003e\n  \u003ch1 id=\"oircnag\"\u003eOIRCNAG\u003c/h1\u003e\n  \u003cp\u003e\u003cbr\u003e\u003c/p\u003e\n\u003c/blockquote\u003e","key_press":null,"trial_type":"html-keyboard-response","trial_index":3,"time_elapsed":33912,"internal_node_id":"0.0-3.0-0.0","responseType":"finish","participantID":"1tkdx97hrv0ozphmccawq54ysobwygpq","conditionNumber":0},{"rt":4532,"responses":"{\"Q0\":\"\"}","trial_type":"survey-text","trial_index":4,"time_elapsed":38445,"internal_node_id":"0.0-3.0-1.0","responseType":"finish","participantID":"1tkdx97hrv0ozphmccawq54ysobwygpq","conditionNumber":0},{"rt":5874,"responses":"{\"Q0\":4}","trial_type":"survey-likert","trial_index":5,"time_elapsed":44320,"internal_node_id":"0.0-3.0-2.0","responseType":"finish","participantID":"1tkdx97hrv0ozphmccawq54ysobwygpq","conditionNumber":0},{"rt":3491,"stimulus":"\u003cblockquote\u003e\n  \u003cp\u003eNow the next anagram will be shown to you. \u003cbr\u003e\u003cbr\u003e Press 'v' to view the next anagram.\u003c/p\u003e\n\u003c/blockquote\u003e","key_press":86,"trial_type":"html-keyboard-response","trial_index":6,"time_elapsed":47812,"internal_node_id":"0.0-3.0-3.0","responseType":"finish","participantID":"1tkdx97hrv0ozphmccawq54ysobwygpq","conditionNumber":0},{"rt":null,"stimulus":"\u003cblockquote\u003e\n  \u003ch1 id=\"hnatuyg\"\u003eHNATUYG\u003c/h1\u003e\n  \u003cp\u003e\u003cbr\u003e\u003c/p\u003e\n\u003c/blockquote\u003e","key_press":null,"trial_type":"html-keyboard-response","trial_index":7,"time_elapsed":62813,"internal_node_id":"0.0-3.0-4.0","responseType":"finish","participantID":"1tkdx97hrv0ozphmccawq54ysobwygpq","conditionNumber":0},{"rt":4317,"responses":"{\"Q0\":\"naughty\"}","trial_type":"survey-text","trial_index":8,"time_elapsed":67130,"internal_node_id":"0.0-3.0-5.0","responseType":"finish","participantID":"1tkdx97hrv0ozphmccawq54ysobwygpq","conditionNumber":0},{"rt":7353,"responses":"{\"Q0\":5}","trial_type":"survey-likert","trial_index":9,"time_elapsed":74484,"internal_node_id":"0.0-3.0-6.0","responseType":"finish","participantID":"1tkdx97hrv0ozphmccawq54ysobwygpq","conditionNumber":0},{"rt":1406,"stimulus":"\u003cblockquote\u003e\n  \u003cp\u003eNow the next anagram will be shown to you. \u003cbr\u003e\u003cbr\u003e Press 'v' to view the next anagram.\u003c/p\u003e\n\u003c/blockquote\u003e","key_press":86,"trial_type":"html-keyboard-response","trial_index":10,"time_elapsed":75891,"internal_node_id":"0.0-3.0-7.0","responseType":"finish","participantID":"1tkdx97hrv0ozphmccawq54ysobwygpq","conditionNumber":0},{"rt":null,"stimulus":"\u003cblockquote\u003e\n  \u003ch1 id=\"khaomcm\"\u003eKHAOMCM\u003c/h1\u003e\n  \u003cp\u003e\u003cbr\u003e\u003c/p\u003e\n\u003c/blockquote\u003e","key_press":null,"trial_type":"html-keyboard-response","trial_index":11,"time_elapsed":90893,"internal_node_id":"0.0-3.0-8.0","responseType":"finish","participantID":"1tkdx97hrv0ozphmccawq54ysobwygpq","conditionNumber":0},{"rt":1843,"responses":"{\"Q0\":\"\"}","trial_type":"survey-text","trial_index":12,"time_elapsed":92737,"internal_node_id":"0.0-3.0-9.0","responseType":"finish","participantID":"1tkdx97hrv0ozphmccawq54ysobwygpq","conditionNumber":0},{"rt":2811,"responses":"{\"Q0\":4}","trial_type":"survey-likert","trial_index":13,"time_elapsed":95550,"internal_node_id":"0.0-3.0-10.0","responseType":"finish","participantID":"1tkdx97hrv0ozphmccawq54ysobwygpq","conditionNumber":0},{"rt":1719,"stimulus":"\u003cblockquote\u003e\n  \u003cp\u003eNow the next anagram will be shown to you. \u003cbr\u003e\u003cbr\u003e Press 'v' to view the next anagram.\u003c/p\u003e\n\u003c/blockquote\u003e","key_press":86,"trial_type":"html-keyboard-response","trial_index":14,"time_elapsed":97270,"internal_node_id":"0.0-3.0-11.0","responseType":"finish","participantID":"1tkdx97hrv0ozphmccawq54ysobwygpq","conditionNumber":0},{"rt":null,"stimulus":"\u003cblockquote\u003e\n  \u003ch1 id=\"dalrbeu\"\u003eDALRBEU\u003c/h1\u003e\n  \u003cp\u003e\u003cbr\u003e\u003c/p\u003e\n\u003c/blockquote\u003e","key_press":null,"trial_type":"html-keyboard-response","trial_index":15,"time_elapsed":112272,"internal_node_id":"0.0-3.0-12.0","responseType":"finish","participantID":"1tkdx97hrv0ozphmccawq54ysobwygpq","conditionNumber":0},{"rt":1538,"responses":"{\"Q0\":\"\"}","trial_type":"survey-text","trial_index":16,"time_elapsed":113810,"internal_node_id":"0.0-3.0-13.0","responseType":"finish","participantID":"1tkdx97hrv0ozphmccawq54ysobwygpq","conditionNumber":0},{"rt":2387,"responses":"{\"Q0\":3}","trial_type":"survey-likert","trial_index":17,"time_elapsed":116198,"internal_node_id":"0.0-3.0-14.0","responseType":"finish","participantID":"1tkdx97hrv0ozphmccawq54ysobwygpq","conditionNumber":0},{"rt":939,"stimulus":"\u003cblockquote\u003e\n  \u003cp\u003eNow the next anagram will be shown to you. \u003cbr\u003e\u003cbr\u003e Press 'v' to view the next anagram.\u003c/p\u003e\n\u003c/blockquote\u003e","key_press":86,"trial_type":"html-keyboard-response","trial_index":18,"time_elapsed":117138,"internal_node_id":"0.0-3.0-15.0","responseType":"finish","participantID":"1tkdx97hrv0ozphmccawq54ysobwygpq","conditionNumber":0},{"rt":null,"stimulus":"\u003cblockquote\u003e\n  \u003ch1 id=\"dleta\"\u003eDLETA\u003c/h1\u003e\n  \u003cp\u003e\u003cbr\u003e\u003c/p\u003e\n\u003c/blockquote\u003e","key_press":null,"trial_type":"html-keyboard-response","trial_index":19,"time_elapsed":132140,"internal_node_id":"0.0-3.0-16.0","responseType":"finish","participantID":"1tkdx97hrv0ozphmccawq54ysobwygpq","conditionNumber":0},{"rt":3431,"responses":"{\"Q0\":\"delta\"}","trial_type":"survey-text","trial_index":20,"time_elapsed":135571,"internal_node_id":"0.0-3.0-17.0","responseType":"finish","participantID":"1tkdx97hrv0ozphmccawq54ysobwygpq","conditionNumber":0},{"rt":4321,"responses":"{\"Q0\":1}","trial_type":"survey-likert","trial_index":21,"time_elapsed":139894,"internal_node_id":"0.0-4.0-0.0","responseType":"finish","participantID":"1tkdx97hrv0ozphmccawq54ysobwygpq","conditionNumber":0},{"rt":3567,"responses":"{\"Q0\":4}","trial_type":"survey-likert","trial_index":22,"time_elapsed":143462,"internal_node_id":"0.0-4.0-0.1","responseType":"finish","participantID":"1tkdx97hrv0ozphmccawq54ysobwygpq","conditionNumber":0},{"rt":7706,"responses":"{\"Q0\":0}","trial_type":"survey-likert","trial_index":23,"time_elapsed":151170,"internal_node_id":"0.0-4.0-0.2","responseType":"finish","participantID":"1tkdx97hrv0ozphmccawq54ysobwygpq","conditionNumber":0}],"__v":0}
{"_id":{"$oid":"5ccdde6638066a000441ca93"},"data":[{"rt":8531,"responses":"{\"Q0\":\" I consent to participate\"}","trial_type":"survey-multi-choice","trial_index":0,"time_elapsed":8544,"internal_node_id":"0.0-0.0","responseType":"finish","participantID":"rk7sbtqot2cyyfwy0ldfsz019reto7cx","conditionNumber":0},{"trial_type":"call-function","trial_index":1,"time_elapsed":8565,"internal_node_id":"0.0-1.0","responseType":"finish","participantID":"rk7sbtqot2cyyfwy0ldfsz019reto7cx","conditionNumber":0},{"view_history":"[{\"page_index\":0,\"viewing_time\":111078},{\"page_index\":1,\"viewing_time\":6187},{\"page_index\":2,\"viewing_time\":7212}]","rt":124478,"trial_type":"instructions","trial_index":2,"time_elapsed":133045,"internal_node_id":"0.0-2.0","responseType":"finish","participantID":"rk7sbtqot2cyyfwy0ldfsz019reto7cx","conditionNumber":0},{"rt":null,"stimulus":"\u003cblockquote\u003e\n  \u003ch1 id=\"oircnag\"\u003eOIRCNAG\u003c/h1\u003e\n  \u003cp\u003e\u003cbr\u003e\u003c/p\u003e\n\u003c/blockquote\u003e","key_press":null,"trial_type":"html-keyboard-response","trial_index":3,"time_elapsed":148049,"internal_node_id":"0.0-3.0-0.0","responseType":"finish","participantID":"rk7sbtqot2cyyfwy0ldfsz019reto7cx","conditionNumber":0},{"rt":15002,"responses":"{\"Q0\":\"croing\"}","trial_type":"survey-text","trial_index":4,"time_elapsed":163054,"internal_node_id":"0.0-3.0-1.0","responseType":"finish","participantID":"rk7sbtqot2cyyfwy0ldfsz019reto7cx","conditionNumber":0},{"rt":4799,"responses":"{\"Q0\":2}","trial_type":"survey-likert","trial_index":5,"time_elapsed":167857,"internal_node_id":"0.0-3.0-2.0","responseType":"finish","participantID":"rk7sbtqot2cyyfwy0ldfsz019reto7cx","conditionNumber":0},{"rt":6476,"stimulus":"\u003cblockquote\u003e\n  \u003cp\u003eNow the next anagram will be shown to you. \u003cbr\u003e\u003cbr\u003e Press 'v' to view the next anagram.\u003c/p\u003e\n\u003c/blockquote\u003e","key_press":86,"trial_type":"html-keyboard-response","trial_index":6,"time_elapsed":174345,"internal_node_id":"0.0-3.0-3.0","responseType":"finish","participantID":"rk7sbtqot2cyyfwy0ldfsz019reto7cx","conditionNumber":0},{"rt":null,"stimulus":"\u003cblockquote\u003e\n  \u003ch1 id=\"hnatuyg\"\u003eHNATUYG\u003c/h1\u003e\n  \u003cp\u003e\u003cbr\u003e\u003c/p\u003e\n\u003c/blockquote\u003e","key_press":null,"trial_type":"html-keyboard-response","trial_index":7,"time_elapsed":189347,"internal_node_id":"0.0-3.0-4.0","responseType":"finish","participantID":"rk7sbtqot2cyyfwy0ldfsz019reto7cx","conditionNumber":0},{"rt":5155,"responses":"{\"Q0\":\"naughty\"}","trial_type":"survey-text","trial_index":8,"time_elapsed":194504,"internal_node_id":"0.0-3.0-5.0","responseType":"finish","participantID":"rk7sbtqot2cyyfwy0ldfsz019reto7cx","conditionNumber":0},{"rt":2420,"responses":"{\"Q0\":5}","trial_type":"survey-likert","trial_index":9,"time_elapsed":196926,"internal_node_id":"0.0-3.0-6.0","responseType":"finish","participantID":"rk7sbtqot2cyyfwy0ldfsz019reto7cx","conditionNumber":0},{"rt":1734,"stimulus":"\u003cblockquote\u003e\n  \u003cp\u003eNow the next anagram will be shown to you. \u003cbr\u003e\u003cbr\u003e Press 'v' to view the next anagram.\u003c/p\u003e\n\u003c/blockquote\u003e","key_press":86,"trial_type":"html-keyboard-response","trial_index":10,"time_elapsed":198672,"internal_node_id":"0.0-3.0-7.0","responseType":"finish","participantID":"rk7sbtqot2cyyfwy0ldfsz019reto7cx","conditionNumber":0},{"rt":null,"stimulus":"\u003cblockquote\u003e\n  \u003ch1 id=\"khaomcm\"\u003eKHAOMCM\u003c/h1\u003e\n  \u003cp\u003e\u003cbr\u003e\u003c/p\u003e\n\u003c/blockquote\u003e","key_press":null,"trial_type":"html-keyboard-response","trial_index":11,"time_elapsed":213675,"internal_node_id":"0.0-3.0-8.0","responseType":"finish","participantID":"rk7sbtqot2cyyfwy0ldfsz019reto7cx","conditionNumber":0},{"rt":11506,"responses":"{\"Q0\":\"hammock\"}","trial_type":"survey-text","trial_index":12,"time_elapsed":225183,"internal_node_id":"0.0-3.0-9.0","responseType":"finish","participantID":"rk7sbtqot2cyyfwy0ldfsz019reto7cx","conditionNumber":0},{"rt":2296,"responses":"{\"Q0\":5}","trial_type":"survey-likert","trial_index":13,"time_elapsed":227482,"internal_node_id":"0.0-3.0-10.0","responseType":"finish","participantID":"rk7sbtqot2cyyfwy0ldfsz019reto7cx","conditionNumber":0},{"rt":1306,"stimulus":"\u003cblockquote\u003e\n  \u003cp\u003eNow the next anagram will be shown to you. \u003cbr\u003e\u003cbr\u003e Press 'v' to view the next anagram.\u003c/p\u003e\n\u003c/blockquote\u003e","key_press":86,"trial_type":"html-keyboard-response","trial_index":14,"time_elapsed":228800,"internal_node_id":"0.0-3.0-11.0","responseType":"finish","participantID":"rk7sbtqot2cyyfwy0ldfsz019reto7cx","conditionNumber":0},{"rt":null,"stimulus":"\u003cblockquote\u003e\n  \u003ch1 id=\"dalrbeu\"\u003eDALRBEU\u003c/h1\u003e\n  \u003cp\u003e\u003cbr\u003e\u003c/p\u003e\n\u003c/blockquote\u003e","key_press":null,"trial_type":"html-keyboard-response","trial_index":15,"time_elapsed":243802,"internal_node_id":"0.0-3.0-12.0","responseType":"finish","participantID":"rk7sbtqot2cyyfwy0ldfsz019reto7cx","conditionNumber":0},{"rt":15001,"responses":"{\"Q0\":\"dabubrauled\"}","trial_type":"survey-text","trial_index":16,"time_elapsed":258805,"internal_node_id":"0.0-3.0-13.0","responseType":"finish","participantID":"rk7sbtqot2cyyfwy0ldfsz019reto7cx","conditionNumber":0},{"rt":2653,"responses":"{\"Q0\":1}","trial_type":"survey-likert","trial_index":17,"time_elapsed":261461,"internal_node_id":"0.0-3.0-14.0","responseType":"finish","participantID":"rk7sbtqot2cyyfwy0ldfsz019reto7cx","conditionNumber":0},{"rt":20338,"stimulus":"\u003cblockquote\u003e\n  \u003cp\u003eNow the next anagram will be shown to you. \u003cbr\u003e\u003cbr\u003e Press 'v' to view the next anagram.\u003c/p\u003e\n\u003c/blockquote\u003e","key_press":86,"trial_type":"html-keyboard-response","trial_index":18,"time_elapsed":281812,"internal_node_id":"0.0-3.0-15.0","responseType":"finish","participantID":"rk7sbtqot2cyyfwy0ldfsz019reto7cx","conditionNumber":0},{"rt":null,"stimulus":"\u003cblockquote\u003e\n  \u003ch1 id=\"dleta\"\u003eDLETA\u003c/h1\u003e\n  \u003cp\u003e\u003cbr\u003e\u003c/p\u003e\n\u003c/blockquote\u003e","key_press":null,"trial_type":"html-keyboard-response","trial_index":19,"time_elapsed":296815,"internal_node_id":"0.0-3.0-16.0","responseType":"finish","participantID":"rk7sbtqot2cyyfwy0ldfsz019reto7cx","conditionNumber":0},{"rt":4175,"responses":"{\"Q0\":\"delta\"}","trial_type":"survey-text","trial_index":20,"time_elapsed":300992,"internal_node_id":"0.0-3.0-17.0","responseType":"finish","participantID":"rk7sbtqot2cyyfwy0ldfsz019reto7cx","conditionNumber":0},{"rt":4841,"responses":"{\"Q0\":1}","trial_type":"survey-likert","trial_index":21,"time_elapsed":305837,"internal_node_id":"0.0-4.0-0.0","responseType":"finish","participantID":"rk7sbtqot2cyyfwy0ldfsz019reto7cx","conditionNumber":0},{"rt":2563,"responses":"{\"Q0\":5}","trial_type":"survey-likert","trial_index":22,"time_elapsed":308413,"internal_node_id":"0.0-4.0-0.1","responseType":"finish","participantID":"rk7sbtqot2cyyfwy0ldfsz019reto7cx","conditionNumber":0},{"rt":10569,"responses":"{\"Q0\":0}","trial_type":"survey-likert","trial_index":23,"time_elapsed":318995,"internal_node_id":"0.0-4.0-0.2","responseType":"finish","participantID":"rk7sbtqot2cyyfwy0ldfsz019reto7cx","conditionNumber":0}],"__v":0}
{"_id":{"$oid":"5ccdde6c38066a000441ca94"},"data":{"responseType":"start","participantID":"qqqwwusz7wt5le06xe02s30ul1j3okeq","conditionNumber":0},"__v":0}
{"_id":{"$oid":"5ccdde7238066a000441ca95"},"data":[{"rt":13396,"responses":"{\"Q0\":\" I consent to participate\"}","trial_type":"survey-multi-choice","trial_index":0,"time_elapsed":13405,"internal_node_id":"0.0-0.0","responseType":"finish","participantID":"y02mf3mr7awxgk5z61rln9bdfkp628gu","conditionNumber":0},{"trial_type":"call-function","trial_index":1,"time_elapsed":13412,"internal_node_id":"0.0-1.0","responseType":"finish","participantID":"y02mf3mr7awxgk5z61rln9bdfkp628gu","conditionNumber":0},{"view_history":"[{\"page_index\":0,\"viewing_time\":5703},{\"page_index\":1,\"viewing_time\":4202},{\"page_index\":2,\"viewing_time\":75965}]","rt":85871,"trial_type":"instructions","trial_index":2,"time_elapsed":99284,"internal_node_id":"0.0-2.0","responseType":"finish","participantID":"y02mf3mr7awxgk5z61rln9bdfkp628gu","conditionNumber":0},{"rt":null,"stimulus":"\u003cblockquote\u003e\n  \u003ch1 id=\"oircnag\"\u003eOIRCNAG\u003c/h1\u003e\n  \u003cp\u003e\u003cbr\u003e\u003c/p\u003e\n\u003c/blockquote\u003e","key_press":null,"trial_type":"html-keyboard-response","trial_index":3,"time_elapsed":114287,"internal_node_id":"0.0-3.0-0.0","responseType":"finish","participantID":"y02mf3mr7awxgk5z61rln9bdfkp628gu","conditionNumber":0},{"rt":15020,"responses":"{\"Q0\":\"\"}","trial_type":"survey-text","trial_index":4,"time_elapsed":129310,"internal_node_id":"0.0-3.0-1.0","responseType":"finish","participantID":"y02mf3mr7awxgk5z61rln9bdfkp628gu","conditionNumber":0},{"rt":6897,"responses":"{\"Q0\":2}","trial_type":"survey-likert","trial_index":5,"time_elapsed":136211,"internal_node_id":"0.0-3.0-2.0","responseType":"finish","participantID":"y02mf3mr7awxgk5z61rln9bdfkp628gu","conditionNumber":0},{"rt":2547,"stimulus":"\u003cblockquote\u003e\n  \u003cp\u003eNow the next anagram will be shown to you. \u003cbr\u003e\u003cbr\u003e Press 'v' to view the next anagram.\u003c/p\u003e\n\u003c/blockquote\u003e","key_press":86,"trial_type":"html-keyboard-response","trial_index":6,"time_elapsed":138761,"internal_node_id":"0.0-3.0-3.0","responseType":"finish","participantID":"y02mf3mr7awxgk5z61rln9bdfkp628gu","conditionNumber":0},{"rt":null,"stimulus":"\u003cblockquote\u003e\n  \u003ch1 id=\"hnatuyg\"\u003eHNATUYG\u003c/h1\u003e\n  \u003cp\u003e\u003cbr\u003e\u003c/p\u003e\n\u003c/blockquote\u003e","key_press":null,"trial_type":"html-keyboard-response","trial_index":7,"time_elapsed":153763,"internal_node_id":"0.0-3.0-4.0","responseType":"finish","participantID":"y02mf3mr7awxgk5z61rln9bdfkp628gu","conditionNumber":0},{"rt":15002,"responses":"{\"Q0\":\"\"}","trial_type":"survey-text","trial_index":8,"time_elapsed":168767,"internal_node_id":"0.0-3.0-5.0","responseType":"finish","participantID":"y02mf3mr7awxgk5z61rln9bdfkp628gu","conditionNumber":0},{"rt":8241,"responses":"{\"Q0\":2}","trial_type":"survey-likert","trial_index":9,"time_elapsed":177010,"internal_node_id":"0.0-3.0-6.0","responseType":"finish","participantID":"y02mf3mr7awxgk5z61rln9bdfkp628gu","conditionNumber":0},{"rt":2045,"stimulus":"\u003cblockquote\u003e\n  \u003cp\u003eNow the next anagram will be shown to you. \u003cbr\u003e\u003cbr\u003e Press 'v' to view the next anagram.\u003c/p\u003e\n\u003c/blockquote\u003e","key_press":86,"trial_type":"html-keyboard-response","trial_index":10,"time_elapsed":179057,"internal_node_id":"0.0-3.0-7.0","responseType":"finish","participantID":"y02mf3mr7awxgk5z61rln9bdfkp628gu","conditionNumber":0},{"rt":null,"stimulus":"\u003cblockquote\u003e\n  \u003ch1 id=\"khaomcm\"\u003eKHAOMCM\u003c/h1\u003e\n  \u003cp\u003e\u003cbr\u003e\u003c/p\u003e\n\u003c/blockquote\u003e","key_press":null,"trial_type":"html-keyboard-response","trial_index":11,"time_elapsed":194058,"internal_node_id":"0.0-3.0-8.0","responseType":"finish","participantID":"y02mf3mr7awxgk5z61rln9bdfkp628gu","conditionNumber":0},{"rt":15001,"responses":"{\"Q0\":\"\"}","trial_type":"survey-text","trial_index":12,"time_elapsed":209060,"internal_node_id":"0.0-3.0-9.0","responseType":"finish","participantID":"y02mf3mr7awxgk5z61rln9bdfkp628gu","conditionNumber":0},{"rt":5375,"responses":"{\"Q0\":1}","trial_type":"survey-likert","trial_index":13,"time_elapsed":214436,"internal_node_id":"0.0-3.0-10.0","responseType":"finish","participantID":"y02mf3mr7awxgk5z61rln9bdfkp628gu","conditionNumber":0},{"rt":4042,"stimulus":"\u003cblockquote\u003e\n  \u003cp\u003eNow the next anagram will be shown to you. \u003cbr\u003e\u003cbr\u003e Press 'v' to view the next anagram.\u003c/p\u003e\n\u003c/blockquote\u003e","key_press":86,"trial_type":"html-keyboard-response","trial_index":14,"time_elapsed":218481,"internal_node_id":"0.0-3.0-11.0","responseType":"finish","participantID":"y02mf3mr7awxgk5z61rln9bdfkp628gu","conditionNumber":0},{"rt":null,"stimulus":"\u003cblockquote\u003e\n  \u003ch1 id=\"dalrbeu\"\u003eDALRBEU\u003c/h1\u003e\n  \u003cp\u003e\u003cbr\u003e\u003c/p\u003e\n\u003c/blockquote\u003e","key_press":null,"trial_type":"html-keyboard-response","trial_index":15,"time_elapsed":233483,"internal_node_id":"0.0-3.0-12.0","responseType":"finish","participantID":"y02mf3mr7awxgk5z61rln9bdfkp628gu","conditionNumber":0},{"rt":15000,"responses":"{\"Q0\":\"\"}","trial_type":"survey-text","trial_index":16,"time_elapsed":248485,"internal_node_id":"0.0-3.0-13.0","responseType":"finish","participantID":"y02mf3mr7awxgk5z61rln9bdfkp628gu","conditionNumber":0},{"rt":7360,"responses":"{\"Q0\":1}","trial_type":"survey-likert","trial_index":17,"time_elapsed":255846,"internal_node_id":"0.0-3.0-14.0","responseType":"finish","participantID":"y02mf3mr7awxgk5z61rln9bdfkp628gu","conditionNumber":0},{"rt":1481,"stimulus":"\u003cblockquote\u003e\n  \u003cp\u003eNow the next anagram will be shown to you. \u003cbr\u003e\u003cbr\u003e Press 'v' to view the next anagram.\u003c/p\u003e\n\u003c/blockquote\u003e","key_press":86,"trial_type":"html-keyboard-response","trial_index":18,"time_elapsed":257328,"internal_node_id":"0.0-3.0-15.0","responseType":"finish","participantID":"y02mf3mr7awxgk5z61rln9bdfkp628gu","conditionNumber":0},{"rt":null,"stimulus":"\u003cblockquote\u003e\n  \u003ch1 id=\"dleta\"\u003eDLETA\u003c/h1\u003e\n  \u003cp\u003e\u003cbr\u003e\u003c/p\u003e\n\u003c/blockquote\u003e","key_press":null,"trial_type":"html-keyboard-response","trial_index":19,"time_elapsed":272330,"internal_node_id":"0.0-3.0-16.0","responseType":"finish","participantID":"y02mf3mr7awxgk5z61rln9bdfkp628gu","conditionNumber":0},{"rt":5614,"responses":"{\"Q0\":\"delta\"}","trial_type":"survey-text","trial_index":20,"time_elapsed":277946,"internal_node_id":"0.0-3.0-17.0","responseType":"finish","participantID":"y02mf3mr7awxgk5z61rln9bdfkp628gu","conditionNumber":0},{"rt":3480,"responses":"{\"Q0\":1}","trial_type":"survey-likert","trial_index":21,"time_elapsed":281428,"internal_node_id":"0.0-4.0-0.0","responseType":"finish","participantID":"y02mf3mr7awxgk5z61rln9bdfkp628gu","conditionNumber":0},{"rt":5641,"responses":"{\"Q0\":3}","trial_type":"survey-likert","trial_index":22,"time_elapsed":287071,"internal_node_id":"0.0-4.0-0.1","responseType":"finish","participantID":"y02mf3mr7awxgk5z61rln9bdfkp628gu","conditionNumber":0},{"rt":9002,"responses":"{\"Q0\":5}","trial_type":"survey-likert","trial_index":23,"time_elapsed":296075,"internal_node_id":"0.0-4.0-0.2","responseType":"finish","participantID":"y02mf3mr7awxgk5z61rln9bdfkp628gu","conditionNumber":0}],"__v":0}
{"_id":{"$oid":"5ccdde9038066a000441ca96"},"data":{"responseType":"start","participantID":"fhmn18byqd9tj4rl6r3ay75z46qf87f6","conditionNumber":1},"__v":0}
{"_id":{"$oid":"5ccdde9438066a000441ca97"},"data":{"responseType":"start","participantID":"8e73bykg2ub8stbb9cldqzej6ls8e66q","conditionNumber":0},"__v":0}
{"_id":{"$oid":"5ccddea438066a000441ca98"},"data":{"responseType":"start","participantID":"yk3qtxz3cgs8u2p4yolms9qzepl4ntxa","conditionNumber":1},"__v":0}
{"_id":{"$oid":"5ccddeaa38066a000441ca99"},"data":[{"rt":8088,"responses":"{\"Q0\":\" I consent to participate\"}","trial_type":"survey-multi-choice","trial_index":0,"time_elapsed":8097,"internal_node_id":"0.0-0.0","responseType":"finish","participantID":"pfk9u8qqtglc39nr4pbu31gxfavrx6jl","conditionNumber":1},{"trial_type":"call-function","trial_index":1,"time_elapsed":8103,"internal_node_id":"0.0-1.0","responseType":"finish","participantID":"pfk9u8qqtglc39nr4pbu31gxfavrx6jl","conditionNumber":1},{"view_history":"[{\"page_index\":0,\"viewing_time\":11095},{\"page_index\":1,\"viewing_time\":3920},{\"page_index\":2,\"viewing_time\":15215}]","rt":30230,"trial_type":"instructions","trial_index":2,"time_elapsed":38334,"internal_node_id":"0.0-2.0","responseType":"finish","participantID":"pfk9u8qqtglc39nr4pbu31gxfavrx6jl","conditionNumber":1},{"rt":null,"stimulus":"\u003cblockquote\u003e\n  \u003ch1 id=\"orod\"\u003eOROD\u003c/h1\u003e\n  \u003cp\u003e\u003cbr\u003e\u003c/p\u003e\n\u003c/blockquote\u003e","key_press":null,"trial_type":"html-keyboard-response","trial_index":3,"time_elapsed":53338,"internal_node_id":"0.0-3.0-0.0","responseType":"finish","participantID":"pfk9u8qqtglc39nr4pbu31gxfavrx6jl","conditionNumber":1},{"rt":5897,"responses":"{\"Q0\":\"door\"}","trial_type":"survey-text","trial_index":4,"time_elapsed":59240,"internal_node_id":"0.0-3.0-1.0","responseType":"finish","participantID":"pfk9u8qqtglc39nr4pbu31gxfavrx6jl","conditionNumber":1},{"rt":3266,"responses":"{\"Q0\":6}","trial_type":"survey-likert","trial_index":5,"time_elapsed":62512,"internal_node_id":"0.0-3.0-2.0","responseType":"finish","participantID":"pfk9u8qqtglc39nr4pbu31gxfavrx6jl","conditionNumber":1},{"rt":2829,"stimulus":"\u003cblockquote\u003e\n  \u003cp\u003eNow the next anagram will be shown to you. \u003cbr\u003e\u003cbr\u003e Press 'v' to view the next anagram.\u003c/p\u003e\n\u003c/blockquote\u003e","key_press":86,"trial_type":"html-keyboard-response","trial_index":6,"time_elapsed":65343,"internal_node_id":"0.0-3.0-3.0","responseType":"finish","participantID":"pfk9u8qqtglc39nr4pbu31gxfavrx6jl","conditionNumber":1},{"rt":null,"stimulus":"\u003cblockquote\u003e\n  \u003ch1 id=\"bluk\"\u003eBLUK\u003c/h1\u003e\n  \u003cp\u003e\u003cbr\u003e\u003c/p\u003e\n\u003c/blockquote\u003e","key_press":null,"trial_type":"html-keyboard-response","trial_index":7,"time_elapsed":80347,"internal_node_id":"0.0-3.0-4.0","responseType":"finish","participantID":"pfk9u8qqtglc39nr4pbu31gxfavrx6jl","conditionNumber":1},{"rt":7553,"responses":"{\"Q0\":\"bulk\"}","trial_type":"survey-text","trial_index":8,"time_elapsed":87902,"internal_node_id":"0.0-3.0-5.0","responseType":"finish","participantID":"pfk9u8qqtglc39nr4pbu31gxfavrx6jl","conditionNumber":1},{"rt":2440,"responses":"{\"Q0\":6}","trial_type":"survey-likert","trial_index":9,"time_elapsed":90343,"internal_node_id":"0.0-3.0-6.0","responseType":"finish","participantID":"pfk9u8qqtglc39nr4pbu31gxfavrx6jl","conditionNumber":1},{"rt":1086,"stimulus":"\u003cblockquote\u003e\n  \u003cp\u003eNow the next anagram will be shown to you. \u003cbr\u003e\u003cbr\u003e Press 'v' to view the next anagram.\u003c/p\u003e\n\u003c/blockquote\u003e","key_press":86,"trial_type":"html-keyboard-response","trial_index":10,"time_elapsed":91430,"internal_node_id":"0.0-3.0-7.0","responseType":"finish","participantID":"pfk9u8qqtglc39nr4pbu31gxfavrx6jl","conditionNumber":1},{"rt":null,"stimulus":"\u003cblockquote\u003e\n  \u003ch1 id=\"pitn\"\u003ePITN\u003c/h1\u003e\n  \u003cp\u003e\u003cbr\u003e\u003c/p\u003e\n\u003c/blockquote\u003e","key_press":null,"trial_type":"html-keyboard-response","trial_index":11,"time_elapsed":106431,"internal_node_id":"0.0-3.0-8.0","responseType":"finish","participantID":"pfk9u8qqtglc39nr4pbu31gxfavrx6jl","conditionNumber":1},{"rt":5284,"responses":"{\"Q0\":\"pint\"}","trial_type":"survey-text","trial_index":12,"time_elapsed":111716,"internal_node_id":"0.0-3.0-9.0","responseType":"finish","participantID":"pfk9u8qqtglc39nr4pbu31gxfavrx6jl","conditionNumber":1},{"rt":2279,"responses":"{\"Q0\":6}","trial_type":"survey-likert","trial_index":13,"time_elapsed":113997,"internal_node_id":"0.0-3.0-10.0","responseType":"finish","participantID":"pfk9u8qqtglc39nr4pbu31gxfavrx6jl","conditionNumber":1},{"rt":813,"stimulus":"\u003cblockquote\u003e\n  \u003cp\u003eNow the next anagram will be shown to you. \u003cbr\u003e\u003cbr\u003e Press 'v' to view the next anagram.\u003c/p\u003e\n\u003c/blockquote\u003e","key_press":86,"trial_type":"html-keyboard-response","trial_index":14,"time_elapsed":114812,"internal_node_id":"0.0-3.0-11.0","responseType":"finish","participantID":"pfk9u8qqtglc39nr4pbu31gxfavrx6jl","conditionNumber":1},{"rt":null,"stimulus":"\u003cblockquote\u003e\n  \u003ch1 id=\"srto\"\u003eSRTO\u003c/h1\u003e\n  \u003cp\u003e\u003cbr\u003e\u003c/p\u003e\n\u003c/blockquote\u003e","key_press":null,"trial_type":"html-keyboard-response","trial_index":15,"time_elapsed":129813,"internal_node_id":"0.0-3.0-12.0","responseType":"finish","participantID":"pfk9u8qqtglc39nr4pbu31gxfavrx6jl","conditionNumber":1},{"rt":3845,"responses":"{\"Q0\":\"sort\"}","trial_type":"survey-text","trial_index":16,"time_elapsed":133661,"internal_node_id":"0.0-3.0-13.0","responseType":"finish","participantID":"pfk9u8qqtglc39nr4pbu31gxfavrx6jl","conditionNumber":1},{"rt":2086,"responses":"{\"Q0\":6}","trial_type":"survey-likert","trial_index":17,"time_elapsed":135749,"internal_node_id":"0.0-3.0-14.0","responseType":"finish","participantID":"pfk9u8qqtglc39nr4pbu31gxfavrx6jl","conditionNumber":1},{"rt":741,"stimulus":"\u003cblockquote\u003e\n  \u003cp\u003eNow the next anagram will be shown to you. \u003cbr\u003e\u003cbr\u003e Press 'v' to view the next anagram.\u003c/p\u003e\n\u003c/blockquote\u003e","key_press":86,"trial_type":"html-keyboard-response","trial_index":18,"time_elapsed":136493,"internal_node_id":"0.0-3.0-15.0","responseType":"finish","participantID":"pfk9u8qqtglc39nr4pbu31gxfavrx6jl","conditionNumber":1},{"rt":null,"stimulus":"\u003cblockquote\u003e\n  \u003ch1 id=\"dleta\"\u003eDLETA\u003c/h1\u003e\n  \u003cp\u003e\u003cbr\u003e\u003c/p\u003e\n\u003c/blockquote\u003e","key_press":null,"trial_type":"html-keyboard-response","trial_index":19,"time_elapsed":151494,"internal_node_id":"0.0-3.0-16.0","responseType":"finish","participantID":"pfk9u8qqtglc39nr4pbu31gxfavrx6jl","conditionNumber":1},{"rt":3765,"responses":"{\"Q0\":\"delta\"}","trial_type":"survey-text","trial_index":20,"time_elapsed":155261,"internal_node_id":"0.0-3.0-17.0","responseType":"finish","participantID":"pfk9u8qqtglc39nr4pbu31gxfavrx6jl","conditionNumber":1},{"rt":4024,"responses":"{\"Q0\":1}","trial_type":"survey-likert","trial_index":21,"time_elapsed":159288,"internal_node_id":"0.0-4.0-0.0","responseType":"finish","participantID":"pfk9u8qqtglc39nr4pbu31gxfavrx6jl","conditionNumber":1},{"rt":2349,"responses":"{\"Q0\":6}","trial_type":"survey-likert","trial_index":22,"time_elapsed":161645,"internal_node_id":"0.0-4.0-0.1","responseType":"finish","participantID":"pfk9u8qqtglc39nr4pbu31gxfavrx6jl","conditionNumber":1},{"rt":9536,"responses":"{\"Q0\":5}","trial_type":"survey-likert","trial_index":23,"time_elapsed":171184,"internal_node_id":"0.0-4.0-0.2","responseType":"finish","participantID":"pfk9u8qqtglc39nr4pbu31gxfavrx6jl","conditionNumber":1}],"__v":0}
{"_id":{"$oid":"5ccddead38066a000441ca9a"},"data":{"responseType":"start","participantID":"o0g7hl4qx4h5tnxc9u88x4ab10a3hzh1","conditionNumber":0},"__v":0}
{"_id":{"$oid":"5ccddebc38066a000441ca9b"},"data":[{"rt":4927,"responses":"{\"Q0\":\" I consent to participate\"}","trial_type":"survey-multi-choice","trial_index":0,"time_elapsed":4929,"internal_node_id":"0.0-0.0","responseType":"finish","participantID":"1m37flx7jehg65uu89av91x0q08qvoap","conditionNumber":1},{"trial_type":"call-function","trial_index":1,"time_elapsed":4932,"internal_node_id":"0.0-1.0","responseType":"finish","participantID":"1m37flx7jehg65uu89av91x0q08qvoap","conditionNumber":1},{"view_history":"[{\"page_index\":0,\"viewing_time\":2525},{\"page_index\":1,\"viewing_time\":148336},{\"page_index\":2,\"viewing_time\":1571}]","rt":152432,"trial_type":"instructions","trial_index":2,"time_elapsed":157365,"internal_node_id":"0.0-2.0","responseType":"finish","participantID":"1m37flx7jehg65uu89av91x0q08qvoap","conditionNumber":1},{"rt":null,"stimulus":"\u003cblockquote\u003e\n  \u003ch1 id=\"orod\"\u003eOROD\u003c/h1\u003e\n  \u003cp\u003e\u003cbr\u003e\u003c/p\u003e\n\u003c/blockquote\u003e","key_press":null,"trial_type":"html-keyboard-response","trial_index":3,"time_elapsed":172367,"internal_node_id":"0.0-3.0-0.0","responseType":"finish","participantID":"1m37flx7jehg65uu89av91x0q08qvoap","conditionNumber":1},{"rt":8387,"responses":"{\"Q0\":\"rood\"}","trial_type":"survey-text","trial_index":4,"time_elapsed":180756,"internal_node_id":"0.0-3.0-1.0","responseType":"finish","participantID":"1m37flx7jehg65uu89av91x0q08qvoap","conditionNumber":1},{"rt":3674,"responses":"{\"Q0\":3}","trial_type":"survey-likert","trial_index":5,"time_elapsed":184432,"internal_node_id":"0.0-3.0-2.0","responseType":"finish","participantID":"1m37flx7jehg65uu89av91x0q08qvoap","conditionNumber":1},{"rt":2407,"stimulus":"\u003cblockquote\u003e\n  \u003cp\u003eNow the next anagram will be shown to you. \u003cbr\u003e\u003cbr\u003e Press 'v' to view the next anagram.\u003c/p\u003e\n\u003c/blockquote\u003e","key_press":86,"trial_type":"html-keyboard-response","trial_index":6,"time_elapsed":186842,"internal_node_id":"0.0-3.0-3.0","responseType":"finish","participantID":"1m37flx7jehg65uu89av91x0q08qvoap","conditionNumber":1},{"rt":null,"stimulus":"\u003cblockquote\u003e\n  \u003ch1 id=\"bluk\"\u003eBLUK\u003c/h1\u003e\n  \u003cp\u003e\u003cbr\u003e\u003c/p\u003e\n\u003c/blockquote\u003e","key_press":null,"trial_type":"html-keyboard-response","trial_index":7,"time_elapsed":201844,"internal_node_id":"0.0-3.0-4.0","responseType":"finish","participantID":"1m37flx7jehg65uu89av91x0q08qvoap","conditionNumber":1},{"rt":11409,"responses":"{\"Q0\":\"bulk\"}","trial_type":"survey-text","trial_index":8,"time_elapsed":213253,"internal_node_id":"0.0-3.0-5.0","responseType":"finish","participantID":"1m37flx7jehg65uu89av91x0q08qvoap","conditionNumber":1},{"rt":3359,"responses":"{\"Q0\":3}","trial_type":"survey-likert","trial_index":9,"time_elapsed":216612,"internal_node_id":"0.0-3.0-6.0","responseType":"finish","participantID":"1m37flx7jehg65uu89av91x0q08qvoap","conditionNumber":1},{"rt":1654,"stimulus":"\u003cblockquote\u003e\n  \u003cp\u003eNow the next anagram will be shown to you. \u003cbr\u003e\u003cbr\u003e Press 'v' to view the next anagram.\u003c/p\u003e\n\u003c/blockquote\u003e","key_press":86,"trial_type":"html-keyboard-response","trial_index":10,"time_elapsed":218269,"internal_node_id":"0.0-3.0-7.0","responseType":"finish","participantID":"1m37flx7jehg65uu89av91x0q08qvoap","conditionNumber":1},{"rt":null,"stimulus":"\u003cblockquote\u003e\n  \u003ch1 id=\"pitn\"\u003ePITN\u003c/h1\u003e\n  \u003cp\u003e\u003cbr\u003e\u003c/p\u003e\n\u003c/blockquote\u003e","key_press":null,"trial_type":"html-keyboard-response","trial_index":11,"time_elapsed":233271,"internal_node_id":"0.0-3.0-8.0","responseType":"finish","participantID":"1m37flx7jehg65uu89av91x0q08qvoap","conditionNumber":1},{"rt":13485,"responses":"{\"Q0\":\"pint\"}","trial_type":"survey-text","trial_index":12,"time_elapsed":246756,"internal_node_id":"0.0-3.0-9.0","responseType":"finish","participantID":"1m37flx7jehg65uu89av91x0q08qvoap","conditionNumber":1},{"rt":4680,"responses":"{\"Q0\":3}","trial_type":"survey-likert","trial_index":13,"time_elapsed":251437,"internal_node_id":"0.0-3.0-10.0","responseType":"finish","participantID":"1m37flx7jehg65uu89av91x0q08qvoap","conditionNumber":1},{"rt":1575,"stimulus":"\u003cblockquote\u003e\n  \u003cp\u003eNow the next anagram will be shown to you. \u003cbr\u003e\u003cbr\u003e Press 'v' to view the next anagram.\u003c/p\u003e\n\u003c/blockquote\u003e","key_press":86,"trial_type":"html-keyboard-response","trial_index":14,"time_elapsed":253015,"internal_node_id":"0.0-3.0-11.0","responseType":"finish","participantID":"1m37flx7jehg65uu89av91x0q08qvoap","conditionNumber":1},{"rt":null,"stimulus":"\u003cblockquote\u003e\n  \u003ch1 id=\"srto\"\u003eSRTO\u003c/h1\u003e\n  \u003cp\u003e\u003cbr\u003e\u003c/p\u003e\n\u003c/blockquote\u003e","key_press":null,"trial_type":"html-keyboard-response","trial_index":15,"time_elapsed":268016,"internal_node_id":"0.0-3.0-12.0","responseType":"finish","participantID":"1m37flx7jehg65uu89av91x0q08qvoap","conditionNumber":1},{"rt":11760,"responses":"{\"Q0\":\"sort\"}","trial_type":"survey-text","trial_index":16,"time_elapsed":279777,"internal_node_id":"0.0-3.0-13.0","responseType":"finish","participantID":"1m37flx7jehg65uu89av91x0q08qvoap","conditionNumber":1},{"rt":2869,"responses":"{\"Q0\":3}","trial_type":"survey-likert","trial_index":17,"time_elapsed":282647,"internal_node_id":"0.0-3.0-14.0","responseType":"finish","participantID":"1m37flx7jehg65uu89av91x0q08qvoap","conditionNumber":1},{"rt":1514,"stimulus":"\u003cblockquote\u003e\n  \u003cp\u003eNow the next anagram will be shown to you. \u003cbr\u003e\u003cbr\u003e Press 'v' to view the next anagram.\u003c/p\u003e\n\u003c/blockquote\u003e","key_press":86,"trial_type":"html-keyboard-response","trial_index":18,"time_elapsed":284163,"internal_node_id":"0.0-3.0-15.0","responseType":"finish","participantID":"1m37flx7jehg65uu89av91x0q08qvoap","conditionNumber":1},{"rt":null,"stimulus":"\u003cblockquote\u003e\n  \u003ch1 id=\"dleta\"\u003eDLETA\u003c/h1\u003e\n  \u003cp\u003e\u003cbr\u003e\u003c/p\u003e\n\u003c/blockquote\u003e","key_press":null,"trial_type":"html-keyboard-response","trial_index":19,"time_elapsed":299165,"internal_node_id":"0.0-3.0-16.0","responseType":"finish","participantID":"1m37flx7jehg65uu89av91x0q08qvoap","conditionNumber":1},{"rt":15003,"responses":"{\"Q0\":\"\"}","trial_type":"survey-text","trial_index":20,"time_elapsed":314169,"internal_node_id":"0.0-3.0-17.0","responseType":"finish","participantID":"1m37flx7jehg65uu89av91x0q08qvoap","conditionNumber":1},{"rt":9447,"responses":"{\"Q0\":1}","trial_type":"survey-likert","trial_index":21,"time_elapsed":323618,"internal_node_id":"0.0-4.0-0.0","responseType":"finish","participantID":"1m37flx7jehg65uu89av91x0q08qvoap","conditionNumber":1},{"rt":1935,"responses":"{\"Q0\":3}","trial_type":"survey-likert","trial_index":22,"time_elapsed":325556,"internal_node_id":"0.0-4.0-0.1","responseType":"finish","participantID":"1m37flx7jehg65uu89av91x0q08qvoap","conditionNumber":1},{"rt":4188,"responses":"{\"Q0\":0}","trial_type":"survey-likert","trial_index":23,"time_elapsed":329747,"internal_node_id":"0.0-4.0-0.2","responseType":"finish","participantID":"1m37flx7jehg65uu89av91x0q08qvoap","conditionNumber":1}],"__v":0}
{"_id":{"$oid":"5ccddec838066a000441ca9c"},"data":{"responseType":"start","participantID":"68gjl73ng5hw3vmh7g7j6qz8j15450my","conditionNumber":1},"__v":0}
