[{
  "_id": {
    "$oid": "6040417459c63e0004a8b6b9"
  },
  "data": {
    "responseType": "start",
    "participantID": "0obr4tl2y0w5qc33g9unqb4jbe81zasy",
    "conditionNumber": 0,
    "anagrams_seen": ">#BRID\n<br>"
  },
  "__v": 0
},{
  "_id": {
    "$oid": "6040418d59c63e0004a8b6ba"
  },
  "data": {
    "responseType": "start",
    "participantID": "wfz7t0fk6e3dehz7orjuwd5tx5t60ebw",
    "conditionNumber": 0,
    "anagrams_seen": ">#SONW\n<br>"
  },
  "__v": 0
},{
  "_id": {
    "$oid": "604041ea59c63e0004a8b6bb"
  },
  "data": {
    "responseType": "start",
    "participantID": "zrvsg0bvnyuxjstbvtqc4x6oflx1jgn1",
    "conditionNumber": 1,
    "anagrams_seen": ">#BLUK\n<br>"
  },
  "__v": 0
},{
  "_id": {
    "$oid": "6040420e59c63e0004a8b6bc"
  },
  "data": [
    {
      "rt": 21456,
      "responses": "{\"Q0\":\" I consent to participate\"}",
      "trial_type": "survey-multi-choice",
      "trial_index": 0,
      "time_elapsed": 21489,
      "internal_node_id": "0.0-0.0",
      "responseType": "finish",
      "participantID": "0obr4tl2y0w5qc33g9unqb4jbe81zasy",
      "conditionNumber": 0
    },
    {
      "trial_type": "call-function",
      "trial_index": 1,
      "time_elapsed": 21495,
      "internal_node_id": "0.0-1.0",
      "responseType": "finish",
      "participantID": "0obr4tl2y0w5qc33g9unqb4jbe81zasy",
      "conditionNumber": 0
    },
    {
      "view_history": "[{\"page_index\":0,\"viewing_time\":2216},{\"page_index\":1,\"viewing_time\":21020},{\"page_index\":2,\"viewing_time\":4493}]",
      "rt": 27730,
      "trial_type": "instructions",
      "trial_index": 2,
      "time_elapsed": 49225,
      "internal_node_id": "0.0-2.0",
      "responseType": "finish",
      "participantID": "0obr4tl2y0w5qc33g9unqb4jbe81zasy",
      "conditionNumber": 0
    },
    {
      "rt": 7171,
      "stimulus": "<blockquote>\n  <p>Now an anagram will be shown to you. <br><br> Press 'v' to view the next anagram.</p>\n</blockquote>",
      "key_press": 86,
      "trial_type": "html-keyboard-response",
      "trial_index": 3,
      "time_elapsed": 56397,
      "internal_node_id": "0.0-3.0-0.0",
      "responseType": "finish",
      "participantID": "0obr4tl2y0w5qc33g9unqb4jbe81zasy",
      "conditionNumber": 0
    },
    {
      "rt": null,
      "stimulus": "<blockquote>\n  <h1 id=\"ayugnht\">AYUGNHT</h1>\n  <p><br></p>\n</blockquote>",
      "key_press": null,
      "trial_type": "html-keyboard-response",
      "trial_index": 4,
      "time_elapsed": 67407,
      "internal_node_id": "0.0-3.0-1.0",
      "responseType": "finish",
      "participantID": "0obr4tl2y0w5qc33g9unqb4jbe81zasy",
      "conditionNumber": 0
    },
    {
      "rt": 5311,
      "responses": "{\"Q0\":1}",
      "trial_type": "survey-likert",
      "trial_index": 5,
      "time_elapsed": 72721,
      "internal_node_id": "0.0-3.0-2.0",
      "responseType": "finish",
      "participantID": "0obr4tl2y0w5qc33g9unqb4jbe81zasy",
      "conditionNumber": 0
    },
    {
      "rt": 14614,
      "responses": "{\"Q0\":6}",
      "trial_type": "survey-likert",
      "trial_index": 6,
      "time_elapsed": 87342,
      "internal_node_id": "0.0-3.0-3.0",
      "responseType": "finish",
      "participantID": "0obr4tl2y0w5qc33g9unqb4jbe81zasy",
      "conditionNumber": 0
    },
    {
      "rt": 1607,
      "stimulus": "<blockquote>\n  <p>Now an anagram will be shown to you. <br><br> Press 'v' to view the next anagram.</p>\n</blockquote>",
      "key_press": 86,
      "trial_type": "html-keyboard-response",
      "trial_index": 7,
      "time_elapsed": 88952,
      "internal_node_id": "0.0-3.0-4.0",
      "responseType": "finish",
      "participantID": "0obr4tl2y0w5qc33g9unqb4jbe81zasy",
      "conditionNumber": 0
    },
    {
      "rt": null,
      "stimulus": "<blockquote>\n  <h1 id=\"aneplix\">ANEPLIX</h1>\n  <p><br></p>\n</blockquote>",
      "key_press": null,
      "trial_type": "html-keyboard-response",
      "trial_index": 8,
      "time_elapsed": 99953,
      "internal_node_id": "0.0-3.0-5.0",
      "responseType": "finish",
      "participantID": "0obr4tl2y0w5qc33g9unqb4jbe81zasy",
      "conditionNumber": 0
    },
    {
      "rt": 4841,
      "responses": "{\"Q0\":0}",
      "trial_type": "survey-likert",
      "trial_index": 9,
      "time_elapsed": 104795,
      "internal_node_id": "0.0-3.0-6.0",
      "responseType": "finish",
      "participantID": "0obr4tl2y0w5qc33g9unqb4jbe81zasy",
      "conditionNumber": 0
    },
    {
      "rt": 13049,
      "responses": "{\"Q0\":0}",
      "trial_type": "survey-likert",
      "trial_index": 10,
      "time_elapsed": 117851,
      "internal_node_id": "0.0-3.0-7.0",
      "responseType": "finish",
      "participantID": "0obr4tl2y0w5qc33g9unqb4jbe81zasy",
      "conditionNumber": 0
    },
    {
      "rt": 1276,
      "stimulus": "<blockquote>\n  <p>Now an anagram will be shown to you. <br><br> Press 'v' to view the next anagram.</p>\n</blockquote>",
      "key_press": 86,
      "trial_type": "html-keyboard-response",
      "trial_index": 11,
      "time_elapsed": 119132,
      "internal_node_id": "0.0-3.0-8.0",
      "responseType": "finish",
      "participantID": "0obr4tl2y0w5qc33g9unqb4jbe81zasy",
      "conditionNumber": 0
    },
    {
      "rt": null,
      "stimulus": "<blockquote>\n  <h1 id=\"jwaalky\">JWAALKY</h1>\n  <p><br></p>\n</blockquote>",
      "key_press": null,
      "trial_type": "html-keyboard-response",
      "trial_index": 12,
      "time_elapsed": 130134,
      "internal_node_id": "0.0-3.0-9.0",
      "responseType": "finish",
      "participantID": "0obr4tl2y0w5qc33g9unqb4jbe81zasy",
      "conditionNumber": 0
    },
    {
      "rt": 3549,
      "responses": "{\"Q0\":0}",
      "trial_type": "survey-likert",
      "trial_index": 13,
      "time_elapsed": 133685,
      "internal_node_id": "0.0-3.0-10.0",
      "responseType": "finish",
      "participantID": "0obr4tl2y0w5qc33g9unqb4jbe81zasy",
      "conditionNumber": 0
    },
    {
      "rt": 3321,
      "responses": "{\"Q0\":0}",
      "trial_type": "survey-likert",
      "trial_index": 14,
      "time_elapsed": 137011,
      "internal_node_id": "0.0-3.0-11.0",
      "responseType": "finish",
      "participantID": "0obr4tl2y0w5qc33g9unqb4jbe81zasy",
      "conditionNumber": 0
    },
    {
      "rt": 1584,
      "stimulus": "<blockquote>\n  <p>Now an anagram will be shown to you. <br><br> Press 'v' to view the next anagram.</p>\n</blockquote>",
      "key_press": 86,
      "trial_type": "html-keyboard-response",
      "trial_index": 15,
      "time_elapsed": 138600,
      "internal_node_id": "0.0-3.0-12.0",
      "responseType": "finish",
      "participantID": "0obr4tl2y0w5qc33g9unqb4jbe81zasy",
      "conditionNumber": 0
    },
    {
      "rt": null,
      "stimulus": "<blockquote>\n  <h1 id=\"khaomcm\">KHAOMCM</h1>\n  <p><br></p>\n</blockquote>",
      "key_press": null,
      "trial_type": "html-keyboard-response",
      "trial_index": 16,
      "time_elapsed": 149602,
      "internal_node_id": "0.0-3.0-13.0",
      "responseType": "finish",
      "participantID": "0obr4tl2y0w5qc33g9unqb4jbe81zasy",
      "conditionNumber": 0
    },
    {
      "rt": 2860,
      "responses": "{\"Q0\":0}",
      "trial_type": "survey-likert",
      "trial_index": 17,
      "time_elapsed": 152463,
      "internal_node_id": "0.0-3.0-14.0",
      "responseType": "finish",
      "participantID": "0obr4tl2y0w5qc33g9unqb4jbe81zasy",
      "conditionNumber": 0
    },
    {
      "rt": 4149,
      "responses": "{\"Q0\":0}",
      "trial_type": "survey-likert",
      "trial_index": 18,
      "time_elapsed": 156617,
      "internal_node_id": "0.0-3.0-15.0",
      "responseType": "finish",
      "participantID": "0obr4tl2y0w5qc33g9unqb4jbe81zasy",
      "conditionNumber": 0
    },
    {
      "rt": 1315,
      "stimulus": "<blockquote>\n  <p>Now an anagram will be shown to you. <br><br> Press 'v' to view the next anagram.</p>\n</blockquote>",
      "key_press": 86,
      "trial_type": "html-keyboard-response",
      "trial_index": 19,
      "time_elapsed": 157936,
      "internal_node_id": "0.0-3.0-16.0",
      "responseType": "finish",
      "participantID": "0obr4tl2y0w5qc33g9unqb4jbe81zasy",
      "conditionNumber": 0
    },
    {
      "rt": null,
      "stimulus": "<blockquote>\n  <h1 id=\"brid\">BRID</h1>\n  <p><br></p>\n</blockquote>",
      "key_press": null,
      "trial_type": "html-keyboard-response",
      "trial_index": 20,
      "time_elapsed": 168938,
      "internal_node_id": "0.0-3.0-17.0",
      "responseType": "finish",
      "participantID": "0obr4tl2y0w5qc33g9unqb4jbe81zasy",
      "conditionNumber": 0
    },
    {
      "rt": 2637,
      "responses": "{\"Q0\":1}",
      "trial_type": "survey-likert",
      "trial_index": 21,
      "time_elapsed": 171576,
      "internal_node_id": "0.0-4.0-0.0",
      "responseType": "finish",
      "participantID": "0obr4tl2y0w5qc33g9unqb4jbe81zasy",
      "conditionNumber": 0
    },
    {
      "rt": 3561,
      "responses": "{\"Q0\":6}",
      "trial_type": "survey-likert",
      "trial_index": 22,
      "time_elapsed": 175143,
      "internal_node_id": "0.0-4.0-0.1",
      "responseType": "finish",
      "participantID": "0obr4tl2y0w5qc33g9unqb4jbe81zasy",
      "conditionNumber": 0
    }
  ],
  "__v": 0
},{
  "_id": {
    "$oid": "6040422259c63e0004a8b6bd"
  },
  "data": {
    "responseType": "start",
    "participantID": "zjm2o6pbuhkp9dmtmv20m9k1juposlsg",
    "conditionNumber": 1,
    "anagrams_seen": ">#SONW\n<br>"
  },
  "__v": 0
},{
  "_id": {
    "$oid": "6040422559c63e0004a8b6be"
  },
  "data": [
    {
      "rt": 4899,
      "responses": "{\"Q0\":\" I consent to participate\"}",
      "trial_type": "survey-multi-choice",
      "trial_index": 0,
      "time_elapsed": 4911,
      "internal_node_id": "0.0-0.0",
      "responseType": "finish",
      "participantID": "wfz7t0fk6e3dehz7orjuwd5tx5t60ebw",
      "conditionNumber": 0
    },
    {
      "trial_type": "call-function",
      "trial_index": 1,
      "time_elapsed": 4914,
      "internal_node_id": "0.0-1.0",
      "responseType": "finish",
      "participantID": "wfz7t0fk6e3dehz7orjuwd5tx5t60ebw",
      "conditionNumber": 0
    },
    {
      "view_history": "[{\"page_index\":0,\"viewing_time\":1414},{\"page_index\":1,\"viewing_time\":13995},{\"page_index\":2,\"viewing_time\":10552}]",
      "rt": 25962,
      "trial_type": "instructions",
      "trial_index": 2,
      "time_elapsed": 30877,
      "internal_node_id": "0.0-2.0",
      "responseType": "finish",
      "participantID": "wfz7t0fk6e3dehz7orjuwd5tx5t60ebw",
      "conditionNumber": 0
    },
    {
      "rt": 4527,
      "stimulus": "<blockquote>\n  <p>Now an anagram will be shown to you. <br><br> Press 'v' to view the next anagram.</p>\n</blockquote>",
      "key_press": 86,
      "trial_type": "html-keyboard-response",
      "trial_index": 3,
      "time_elapsed": 35404,
      "internal_node_id": "0.0-3.0-0.0",
      "responseType": "finish",
      "participantID": "wfz7t0fk6e3dehz7orjuwd5tx5t60ebw",
      "conditionNumber": 0
    },
    {
      "rt": null,
      "stimulus": "<blockquote>\n  <h1 id=\"jwaalky\">JWAALKY</h1>\n  <p><br></p>\n</blockquote>",
      "key_press": null,
      "trial_type": "html-keyboard-response",
      "trial_index": 4,
      "time_elapsed": 46406,
      "internal_node_id": "0.0-3.0-1.0",
      "responseType": "finish",
      "participantID": "wfz7t0fk6e3dehz7orjuwd5tx5t60ebw",
      "conditionNumber": 0
    },
    {
      "rt": 5511,
      "responses": "{\"Q0\":0}",
      "trial_type": "survey-likert",
      "trial_index": 5,
      "time_elapsed": 51918,
      "internal_node_id": "0.0-3.0-2.0",
      "responseType": "finish",
      "participantID": "wfz7t0fk6e3dehz7orjuwd5tx5t60ebw",
      "conditionNumber": 0
    },
    {
      "rt": 15117,
      "responses": "{\"Q0\":0}",
      "trial_type": "survey-likert",
      "trial_index": 6,
      "time_elapsed": 67037,
      "internal_node_id": "0.0-3.0-3.0",
      "responseType": "finish",
      "participantID": "wfz7t0fk6e3dehz7orjuwd5tx5t60ebw",
      "conditionNumber": 0
    },
    {
      "rt": 2973,
      "stimulus": "<blockquote>\n  <p>Now an anagram will be shown to you. <br><br> Press 'v' to view the next anagram.</p>\n</blockquote>",
      "key_press": 86,
      "trial_type": "html-keyboard-response",
      "trial_index": 7,
      "time_elapsed": 70012,
      "internal_node_id": "0.0-3.0-4.0",
      "responseType": "finish",
      "participantID": "wfz7t0fk6e3dehz7orjuwd5tx5t60ebw",
      "conditionNumber": 0
    },
    {
      "rt": null,
      "stimulus": "<blockquote>\n  <h1 id=\"khaomcm\">KHAOMCM</h1>\n  <p><br></p>\n</blockquote>",
      "key_press": null,
      "trial_type": "html-keyboard-response",
      "trial_index": 8,
      "time_elapsed": 81014,
      "internal_node_id": "0.0-3.0-5.0",
      "responseType": "finish",
      "participantID": "wfz7t0fk6e3dehz7orjuwd5tx5t60ebw",
      "conditionNumber": 0
    },
    {
      "rt": 1626,
      "responses": "{\"Q0\":0}",
      "trial_type": "survey-likert",
      "trial_index": 9,
      "time_elapsed": 82640,
      "internal_node_id": "0.0-3.0-6.0",
      "responseType": "finish",
      "participantID": "wfz7t0fk6e3dehz7orjuwd5tx5t60ebw",
      "conditionNumber": 0
    },
    {
      "rt": 9332,
      "responses": "{\"Q0\":0}",
      "trial_type": "survey-likert",
      "trial_index": 10,
      "time_elapsed": 91974,
      "internal_node_id": "0.0-3.0-7.0",
      "responseType": "finish",
      "participantID": "wfz7t0fk6e3dehz7orjuwd5tx5t60ebw",
      "conditionNumber": 0
    },
    {
      "rt": 3100,
      "stimulus": "<blockquote>\n  <p>Now an anagram will be shown to you. <br><br> Press 'v' to view the next anagram.</p>\n</blockquote>",
      "key_press": 86,
      "trial_type": "html-keyboard-response",
      "trial_index": 11,
      "time_elapsed": 95076,
      "internal_node_id": "0.0-3.0-8.0",
      "responseType": "finish",
      "participantID": "wfz7t0fk6e3dehz7orjuwd5tx5t60ebw",
      "conditionNumber": 0
    },
    {
      "rt": null,
      "stimulus": "<blockquote>\n  <h1 id=\"ayugnht\">AYUGNHT</h1>\n  <p><br></p>\n</blockquote>",
      "key_press": null,
      "trial_type": "html-keyboard-response",
      "trial_index": 12,
      "time_elapsed": 106077,
      "internal_node_id": "0.0-3.0-9.0",
      "responseType": "finish",
      "participantID": "wfz7t0fk6e3dehz7orjuwd5tx5t60ebw",
      "conditionNumber": 0
    },
    {
      "rt": 2301,
      "responses": "{\"Q0\":1}",
      "trial_type": "survey-likert",
      "trial_index": 13,
      "time_elapsed": 108379,
      "internal_node_id": "0.0-3.0-10.0",
      "responseType": "finish",
      "participantID": "wfz7t0fk6e3dehz7orjuwd5tx5t60ebw",
      "conditionNumber": 0
    },
    {
      "rt": 7764,
      "responses": "{\"Q0\":6}",
      "trial_type": "survey-likert",
      "trial_index": 14,
      "time_elapsed": 116145,
      "internal_node_id": "0.0-3.0-11.0",
      "responseType": "finish",
      "participantID": "wfz7t0fk6e3dehz7orjuwd5tx5t60ebw",
      "conditionNumber": 0
    },
    {
      "rt": 2192,
      "stimulus": "<blockquote>\n  <p>Now an anagram will be shown to you. <br><br> Press 'v' to view the next anagram.</p>\n</blockquote>",
      "key_press": 86,
      "trial_type": "html-keyboard-response",
      "trial_index": 15,
      "time_elapsed": 118339,
      "internal_node_id": "0.0-3.0-12.0",
      "responseType": "finish",
      "participantID": "wfz7t0fk6e3dehz7orjuwd5tx5t60ebw",
      "conditionNumber": 0
    },
    {
      "rt": null,
      "stimulus": "<blockquote>\n  <h1 id=\"dalrbeu\">DALRBEU</h1>\n  <p><br></p>\n</blockquote>",
      "key_press": null,
      "trial_type": "html-keyboard-response",
      "trial_index": 16,
      "time_elapsed": 129340,
      "internal_node_id": "0.0-3.0-13.0",
      "responseType": "finish",
      "participantID": "wfz7t0fk6e3dehz7orjuwd5tx5t60ebw",
      "conditionNumber": 0
    },
    {
      "rt": 4109,
      "responses": "{\"Q0\":0}",
      "trial_type": "survey-likert",
      "trial_index": 17,
      "time_elapsed": 133449,
      "internal_node_id": "0.0-3.0-14.0",
      "responseType": "finish",
      "participantID": "wfz7t0fk6e3dehz7orjuwd5tx5t60ebw",
      "conditionNumber": 0
    },
    {
      "rt": 1455,
      "responses": "{\"Q0\":0}",
      "trial_type": "survey-likert",
      "trial_index": 18,
      "time_elapsed": 134906,
      "internal_node_id": "0.0-3.0-15.0",
      "responseType": "finish",
      "participantID": "wfz7t0fk6e3dehz7orjuwd5tx5t60ebw",
      "conditionNumber": 0
    },
    {
      "rt": 2159,
      "stimulus": "<blockquote>\n  <p>Now an anagram will be shown to you. <br><br> Press 'v' to view the next anagram.</p>\n</blockquote>",
      "key_press": 86,
      "trial_type": "html-keyboard-response",
      "trial_index": 19,
      "time_elapsed": 137067,
      "internal_node_id": "0.0-3.0-16.0",
      "responseType": "finish",
      "participantID": "wfz7t0fk6e3dehz7orjuwd5tx5t60ebw",
      "conditionNumber": 0
    },
    {
      "rt": null,
      "stimulus": "<blockquote>\n  <h1 id=\"sonw\">SONW</h1>\n  <p><br></p>\n</blockquote>",
      "key_press": null,
      "trial_type": "html-keyboard-response",
      "trial_index": 20,
      "time_elapsed": 148068,
      "internal_node_id": "0.0-3.0-17.0",
      "responseType": "finish",
      "participantID": "wfz7t0fk6e3dehz7orjuwd5tx5t60ebw",
      "conditionNumber": 0
    },
    {
      "rt": 4164,
      "responses": "{\"Q0\":1}",
      "trial_type": "survey-likert",
      "trial_index": 21,
      "time_elapsed": 152233,
      "internal_node_id": "0.0-4.0-0.0",
      "responseType": "finish",
      "participantID": "wfz7t0fk6e3dehz7orjuwd5tx5t60ebw",
      "conditionNumber": 0
    },
    {
      "rt": 3909,
      "responses": "{\"Q0\":6}",
      "trial_type": "survey-likert",
      "trial_index": 22,
      "time_elapsed": 156144,
      "internal_node_id": "0.0-4.0-0.1",
      "responseType": "finish",
      "participantID": "wfz7t0fk6e3dehz7orjuwd5tx5t60ebw",
      "conditionNumber": 0
    }
  ],
  "__v": 0
},{
  "_id": {
    "$oid": "6040429259c63e0004a8b6bf"
  },
  "data": {
    "responseType": "start",
    "participantID": "2mjro3dwehv5y5mgdon95gleo68dz8o0",
    "conditionNumber": 0,
    "anagrams_seen": ">#KNIG\n<br>"
  },
  "__v": 0
},{
  "_id": {
    "$oid": "6040429859c63e0004a8b6c0"
  },
  "data": [
    {
      "rt": 47754,
      "responses": "{\"Q0\":\" I consent to participate\"}",
      "trial_type": "survey-multi-choice",
      "trial_index": 0,
      "time_elapsed": 47780,
      "internal_node_id": "0.0-0.0",
      "responseType": "finish",
      "participantID": "zrvsg0bvnyuxjstbvtqc4x6oflx1jgn1",
      "conditionNumber": 1
    },
    {
      "trial_type": "call-function",
      "trial_index": 1,
      "time_elapsed": 47801,
      "internal_node_id": "0.0-1.0",
      "responseType": "finish",
      "participantID": "zrvsg0bvnyuxjstbvtqc4x6oflx1jgn1",
      "conditionNumber": 1
    },
    {
      "view_history": "[{\"page_index\":0,\"viewing_time\":3220},{\"page_index\":1,\"viewing_time\":15546},{\"page_index\":2,\"viewing_time\":7147}]",
      "rt": 25915,
      "trial_type": "instructions",
      "trial_index": 2,
      "time_elapsed": 73716,
      "internal_node_id": "0.0-2.0",
      "responseType": "finish",
      "participantID": "zrvsg0bvnyuxjstbvtqc4x6oflx1jgn1",
      "conditionNumber": 1
    },
    {
      "rt": 3313,
      "stimulus": "<blockquote>\n  <p>Now an anagram will be shown to you. <br><br> Press 'v' to view the next anagram.</p>\n</blockquote>",
      "key_press": 86,
      "trial_type": "html-keyboard-response",
      "trial_index": 3,
      "time_elapsed": 77032,
      "internal_node_id": "0.0-3.0-0.0",
      "responseType": "finish",
      "participantID": "zrvsg0bvnyuxjstbvtqc4x6oflx1jgn1",
      "conditionNumber": 1
    },
    {
      "rt": null,
      "stimulus": "<blockquote>\n  <h1 id=\"betl\">BETL</h1>\n  <p><br></p>\n</blockquote>",
      "key_press": null,
      "trial_type": "html-keyboard-response",
      "trial_index": 4,
      "time_elapsed": 88034,
      "internal_node_id": "0.0-3.0-1.0",
      "responseType": "finish",
      "participantID": "zrvsg0bvnyuxjstbvtqc4x6oflx1jgn1",
      "conditionNumber": 1
    },
    {
      "rt": 6240,
      "responses": "{\"Q0\":1}",
      "trial_type": "survey-likert",
      "trial_index": 5,
      "time_elapsed": 94277,
      "internal_node_id": "0.0-3.0-2.0",
      "responseType": "finish",
      "participantID": "zrvsg0bvnyuxjstbvtqc4x6oflx1jgn1",
      "conditionNumber": 1
    },
    {
      "rt": 36975,
      "responses": "{\"Q0\":1}",
      "trial_type": "survey-likert",
      "trial_index": 6,
      "time_elapsed": 131265,
      "internal_node_id": "0.0-3.0-3.0",
      "responseType": "finish",
      "participantID": "zrvsg0bvnyuxjstbvtqc4x6oflx1jgn1",
      "conditionNumber": 1
    },
    {
      "rt": 2015,
      "stimulus": "<blockquote>\n  <p>Now an anagram will be shown to you. <br><br> Press 'v' to view the next anagram.</p>\n</blockquote>",
      "key_press": 86,
      "trial_type": "html-keyboard-response",
      "trial_index": 7,
      "time_elapsed": 133291,
      "internal_node_id": "0.0-3.0-4.0",
      "responseType": "finish",
      "participantID": "zrvsg0bvnyuxjstbvtqc4x6oflx1jgn1",
      "conditionNumber": 1
    },
    {
      "rt": null,
      "stimulus": "<blockquote>\n  <h1 id=\"fodo\">FODO</h1>\n  <p><br></p>\n</blockquote>",
      "key_press": null,
      "trial_type": "html-keyboard-response",
      "trial_index": 8,
      "time_elapsed": 144293,
      "internal_node_id": "0.0-3.0-5.0",
      "responseType": "finish",
      "participantID": "zrvsg0bvnyuxjstbvtqc4x6oflx1jgn1",
      "conditionNumber": 1
    },
    {
      "rt": 6294,
      "responses": "{\"Q0\":1}",
      "trial_type": "survey-likert",
      "trial_index": 9,
      "time_elapsed": 150588,
      "internal_node_id": "0.0-3.0-6.0",
      "responseType": "finish",
      "participantID": "zrvsg0bvnyuxjstbvtqc4x6oflx1jgn1",
      "conditionNumber": 1
    },
    {
      "rt": 4346,
      "responses": "{\"Q0\":1}",
      "trial_type": "survey-likert",
      "trial_index": 10,
      "time_elapsed": 154938,
      "internal_node_id": "0.0-3.0-7.0",
      "responseType": "finish",
      "participantID": "zrvsg0bvnyuxjstbvtqc4x6oflx1jgn1",
      "conditionNumber": 1
    },
    {
      "rt": 1325,
      "stimulus": "<blockquote>\n  <p>Now an anagram will be shown to you. <br><br> Press 'v' to view the next anagram.</p>\n</blockquote>",
      "key_press": 86,
      "trial_type": "html-keyboard-response",
      "trial_index": 11,
      "time_elapsed": 156275,
      "internal_node_id": "0.0-3.0-8.0",
      "responseType": "finish",
      "participantID": "zrvsg0bvnyuxjstbvtqc4x6oflx1jgn1",
      "conditionNumber": 1
    },
    {
      "rt": null,
      "stimulus": "<blockquote>\n  <h1 id=\"codl\">CODL</h1>\n  <p><br></p>\n</blockquote>",
      "key_press": null,
      "trial_type": "html-keyboard-response",
      "trial_index": 12,
      "time_elapsed": 167277,
      "internal_node_id": "0.0-3.0-9.0",
      "responseType": "finish",
      "participantID": "zrvsg0bvnyuxjstbvtqc4x6oflx1jgn1",
      "conditionNumber": 1
    },
    {
      "rt": 3987,
      "responses": "{\"Q0\":1}",
      "trial_type": "survey-likert",
      "trial_index": 13,
      "time_elapsed": 171266,
      "internal_node_id": "0.0-3.0-10.0",
      "responseType": "finish",
      "participantID": "zrvsg0bvnyuxjstbvtqc4x6oflx1jgn1",
      "conditionNumber": 1
    },
    {
      "rt": 5758,
      "responses": "{\"Q0\":1}",
      "trial_type": "survey-likert",
      "trial_index": 14,
      "time_elapsed": 177037,
      "internal_node_id": "0.0-3.0-11.0",
      "responseType": "finish",
      "participantID": "zrvsg0bvnyuxjstbvtqc4x6oflx1jgn1",
      "conditionNumber": 1
    },
    {
      "rt": 1567,
      "stimulus": "<blockquote>\n  <p>Now an anagram will be shown to you. <br><br> Press 'v' to view the next anagram.</p>\n</blockquote>",
      "key_press": 86,
      "trial_type": "html-keyboard-response",
      "trial_index": 15,
      "time_elapsed": 178609,
      "internal_node_id": "0.0-3.0-12.0",
      "responseType": "finish",
      "participantID": "zrvsg0bvnyuxjstbvtqc4x6oflx1jgn1",
      "conditionNumber": 1
    },
    {
      "rt": null,
      "stimulus": "<blockquote>\n  <h1 id=\"pitn\">PITN</h1>\n  <p><br></p>\n</blockquote>",
      "key_press": null,
      "trial_type": "html-keyboard-response",
      "trial_index": 16,
      "time_elapsed": 189611,
      "internal_node_id": "0.0-3.0-13.0",
      "responseType": "finish",
      "participantID": "zrvsg0bvnyuxjstbvtqc4x6oflx1jgn1",
      "conditionNumber": 1
    },
    {
      "rt": 3157,
      "responses": "{\"Q0\":0}",
      "trial_type": "survey-likert",
      "trial_index": 17,
      "time_elapsed": 192771,
      "internal_node_id": "0.0-3.0-14.0",
      "responseType": "finish",
      "participantID": "zrvsg0bvnyuxjstbvtqc4x6oflx1jgn1",
      "conditionNumber": 1
    },
    {
      "rt": 8692,
      "responses": "{\"Q0\":0}",
      "trial_type": "survey-likert",
      "trial_index": 18,
      "time_elapsed": 201481,
      "internal_node_id": "0.0-3.0-15.0",
      "responseType": "finish",
      "participantID": "zrvsg0bvnyuxjstbvtqc4x6oflx1jgn1",
      "conditionNumber": 1
    },
    {
      "rt": 1424,
      "stimulus": "<blockquote>\n  <p>Now an anagram will be shown to you. <br><br> Press 'v' to view the next anagram.</p>\n</blockquote>",
      "key_press": 86,
      "trial_type": "html-keyboard-response",
      "trial_index": 19,
      "time_elapsed": 202916,
      "internal_node_id": "0.0-3.0-16.0",
      "responseType": "finish",
      "participantID": "zrvsg0bvnyuxjstbvtqc4x6oflx1jgn1",
      "conditionNumber": 1
    },
    {
      "rt": null,
      "stimulus": "<blockquote>\n  <h1 id=\"bluk\">BLUK</h1>\n  <p><br></p>\n</blockquote>",
      "key_press": null,
      "trial_type": "html-keyboard-response",
      "trial_index": 20,
      "time_elapsed": 213920,
      "internal_node_id": "0.0-3.0-17.0",
      "responseType": "finish",
      "participantID": "zrvsg0bvnyuxjstbvtqc4x6oflx1jgn1",
      "conditionNumber": 1
    },
    {
      "rt": 3607,
      "responses": "{\"Q0\":0}",
      "trial_type": "survey-likert",
      "trial_index": 21,
      "time_elapsed": 217530,
      "internal_node_id": "0.0-4.0-0.0",
      "responseType": "finish",
      "participantID": "zrvsg0bvnyuxjstbvtqc4x6oflx1jgn1",
      "conditionNumber": 1
    },
    {
      "rt": 4190,
      "responses": "{\"Q0\":0}",
      "trial_type": "survey-likert",
      "trial_index": 22,
      "time_elapsed": 221725,
      "internal_node_id": "0.0-4.0-0.1",
      "responseType": "finish",
      "participantID": "zrvsg0bvnyuxjstbvtqc4x6oflx1jgn1",
      "conditionNumber": 1
    }
  ],
  "__v": 0
},{
  "_id": {
    "$oid": "604042a359c63e0004a8b6c1"
  },
  "data": {
    "responseType": "start",
    "participantID": "l696v4d5johdd4cdvu2hz09sbr38pwwq",
    "conditionNumber": 0,
    "anagrams_seen": ">#BRID\n<br>"
  },
  "__v": 0
},{
  "_id": {
    "$oid": "604042d759c63e0004a8b6c2"
  },
  "data": [
    {
      "rt": 18175,
      "responses": "{\"Q0\":\" I consent to participate\"}",
      "trial_type": "survey-multi-choice",
      "trial_index": 0,
      "time_elapsed": 18183,
      "internal_node_id": "0.0-0.0",
      "responseType": "finish",
      "participantID": "zjm2o6pbuhkp9dmtmv20m9k1juposlsg",
      "conditionNumber": 1
    },
    {
      "trial_type": "call-function",
      "trial_index": 1,
      "time_elapsed": 18187,
      "internal_node_id": "0.0-1.0",
      "responseType": "finish",
      "participantID": "zjm2o6pbuhkp9dmtmv20m9k1juposlsg",
      "conditionNumber": 1
    },
    {
      "view_history": "[{\"page_index\":0,\"viewing_time\":13570},{\"page_index\":1,\"viewing_time\":33696},{\"page_index\":2,\"viewing_time\":9600}]",
      "rt": 56867,
      "trial_type": "instructions",
      "trial_index": 2,
      "time_elapsed": 75054,
      "internal_node_id": "0.0-2.0",
      "responseType": "finish",
      "participantID": "zjm2o6pbuhkp9dmtmv20m9k1juposlsg",
      "conditionNumber": 1
    },
    {
      "rt": 11332,
      "stimulus": "<blockquote>\n  <p>Now an anagram will be shown to you. <br><br> Press 'v' to view the next anagram.</p>\n</blockquote>",
      "key_press": 86,
      "trial_type": "html-keyboard-response",
      "trial_index": 3,
      "time_elapsed": 86387,
      "internal_node_id": "0.0-3.0-0.0",
      "responseType": "finish",
      "participantID": "zjm2o6pbuhkp9dmtmv20m9k1juposlsg",
      "conditionNumber": 1
    },
    {
      "rt": null,
      "stimulus": "<blockquote>\n  <h1 id=\"fidn\">FIDN</h1>\n  <p><br></p>\n</blockquote>",
      "key_press": null,
      "trial_type": "html-keyboard-response",
      "trial_index": 4,
      "time_elapsed": 97389,
      "internal_node_id": "0.0-3.0-1.0",
      "responseType": "finish",
      "participantID": "zjm2o6pbuhkp9dmtmv20m9k1juposlsg",
      "conditionNumber": 1
    },
    {
      "rt": 4624,
      "responses": "{\"Q0\":1}",
      "trial_type": "survey-likert",
      "trial_index": 5,
      "time_elapsed": 102014,
      "internal_node_id": "0.0-3.0-2.0",
      "responseType": "finish",
      "participantID": "zjm2o6pbuhkp9dmtmv20m9k1juposlsg",
      "conditionNumber": 1
    },
    {
      "rt": 15118,
      "responses": "{\"Q0\":1}",
      "trial_type": "survey-likert",
      "trial_index": 6,
      "time_elapsed": 117135,
      "internal_node_id": "0.0-3.0-3.0",
      "responseType": "finish",
      "participantID": "zjm2o6pbuhkp9dmtmv20m9k1juposlsg",
      "conditionNumber": 1
    },
    {
      "rt": 3050,
      "stimulus": "<blockquote>\n  <p>Now an anagram will be shown to you. <br><br> Press 'v' to view the next anagram.</p>\n</blockquote>",
      "key_press": 86,
      "trial_type": "html-keyboard-response",
      "trial_index": 7,
      "time_elapsed": 120185,
      "internal_node_id": "0.0-3.0-4.0",
      "responseType": "finish",
      "participantID": "zjm2o6pbuhkp9dmtmv20m9k1juposlsg",
      "conditionNumber": 1
    },
    {
      "rt": null,
      "stimulus": "<blockquote>\n  <h1 id=\"pitn\">PITN</h1>\n  <p><br></p>\n</blockquote>",
      "key_press": null,
      "trial_type": "html-keyboard-response",
      "trial_index": 8,
      "time_elapsed": 131188,
      "internal_node_id": "0.0-3.0-5.0",
      "responseType": "finish",
      "participantID": "zjm2o6pbuhkp9dmtmv20m9k1juposlsg",
      "conditionNumber": 1
    },
    {
      "rt": 2306,
      "responses": "{\"Q0\":1}",
      "trial_type": "survey-likert",
      "trial_index": 9,
      "time_elapsed": 133494,
      "internal_node_id": "0.0-3.0-6.0",
      "responseType": "finish",
      "participantID": "zjm2o6pbuhkp9dmtmv20m9k1juposlsg",
      "conditionNumber": 1
    },
    {
      "rt": 4791,
      "responses": "{\"Q0\":1}",
      "trial_type": "survey-likert",
      "trial_index": 10,
      "time_elapsed": 138286,
      "internal_node_id": "0.0-3.0-7.0",
      "responseType": "finish",
      "participantID": "zjm2o6pbuhkp9dmtmv20m9k1juposlsg",
      "conditionNumber": 1
    },
    {
      "rt": 2026,
      "stimulus": "<blockquote>\n  <p>Now an anagram will be shown to you. <br><br> Press 'v' to view the next anagram.</p>\n</blockquote>",
      "key_press": 86,
      "trial_type": "html-keyboard-response",
      "trial_index": 11,
      "time_elapsed": 140313,
      "internal_node_id": "0.0-3.0-8.0",
      "responseType": "finish",
      "participantID": "zjm2o6pbuhkp9dmtmv20m9k1juposlsg",
      "conditionNumber": 1
    },
    {
      "rt": null,
      "stimulus": "<blockquote>\n  <h1 id=\"betl\">BETL</h1>\n  <p><br></p>\n</blockquote>",
      "key_press": null,
      "trial_type": "html-keyboard-response",
      "trial_index": 12,
      "time_elapsed": 151314,
      "internal_node_id": "0.0-3.0-9.0",
      "responseType": "finish",
      "participantID": "zjm2o6pbuhkp9dmtmv20m9k1juposlsg",
      "conditionNumber": 1
    },
    {
      "rt": 3091,
      "responses": "{\"Q0\":1}",
      "trial_type": "survey-likert",
      "trial_index": 13,
      "time_elapsed": 154406,
      "internal_node_id": "0.0-3.0-10.0",
      "responseType": "finish",
      "participantID": "zjm2o6pbuhkp9dmtmv20m9k1juposlsg",
      "conditionNumber": 1
    },
    {
      "rt": 1766,
      "responses": "{\"Q0\":1}",
      "trial_type": "survey-likert",
      "trial_index": 14,
      "time_elapsed": 156174,
      "internal_node_id": "0.0-3.0-11.0",
      "responseType": "finish",
      "participantID": "zjm2o6pbuhkp9dmtmv20m9k1juposlsg",
      "conditionNumber": 1
    },
    {
      "rt": 1594,
      "stimulus": "<blockquote>\n  <p>Now an anagram will be shown to you. <br><br> Press 'v' to view the next anagram.</p>\n</blockquote>",
      "key_press": 86,
      "trial_type": "html-keyboard-response",
      "trial_index": 15,
      "time_elapsed": 157770,
      "internal_node_id": "0.0-3.0-12.0",
      "responseType": "finish",
      "participantID": "zjm2o6pbuhkp9dmtmv20m9k1juposlsg",
      "conditionNumber": 1
    },
    {
      "rt": null,
      "stimulus": "<blockquote>\n  <h1 id=\"fodo\">FODO</h1>\n  <p><br></p>\n</blockquote>",
      "key_press": null,
      "trial_type": "html-keyboard-response",
      "trial_index": 16,
      "time_elapsed": 168771,
      "internal_node_id": "0.0-3.0-13.0",
      "responseType": "finish",
      "participantID": "zjm2o6pbuhkp9dmtmv20m9k1juposlsg",
      "conditionNumber": 1
    },
    {
      "rt": 3554,
      "responses": "{\"Q0\":1}",
      "trial_type": "survey-likert",
      "trial_index": 17,
      "time_elapsed": 172326,
      "internal_node_id": "0.0-3.0-14.0",
      "responseType": "finish",
      "participantID": "zjm2o6pbuhkp9dmtmv20m9k1juposlsg",
      "conditionNumber": 1
    },
    {
      "rt": 3791,
      "responses": "{\"Q0\":1}",
      "trial_type": "survey-likert",
      "trial_index": 18,
      "time_elapsed": 176118,
      "internal_node_id": "0.0-3.0-15.0",
      "responseType": "finish",
      "participantID": "zjm2o6pbuhkp9dmtmv20m9k1juposlsg",
      "conditionNumber": 1
    },
    {
      "rt": 2053,
      "stimulus": "<blockquote>\n  <p>Now an anagram will be shown to you. <br><br> Press 'v' to view the next anagram.</p>\n</blockquote>",
      "key_press": 86,
      "trial_type": "html-keyboard-response",
      "trial_index": 19,
      "time_elapsed": 178172,
      "internal_node_id": "0.0-3.0-16.0",
      "responseType": "finish",
      "participantID": "zjm2o6pbuhkp9dmtmv20m9k1juposlsg",
      "conditionNumber": 1
    },
    {
      "rt": null,
      "stimulus": "<blockquote>\n  <h1 id=\"sonw\">SONW</h1>\n  <p><br></p>\n</blockquote>",
      "key_press": null,
      "trial_type": "html-keyboard-response",
      "trial_index": 20,
      "time_elapsed": 189173,
      "internal_node_id": "0.0-3.0-17.0",
      "responseType": "finish",
      "participantID": "zjm2o6pbuhkp9dmtmv20m9k1juposlsg",
      "conditionNumber": 1
    },
    {
      "rt": 4974,
      "responses": "{\"Q0\":1}",
      "trial_type": "survey-likert",
      "trial_index": 21,
      "time_elapsed": 194150,
      "internal_node_id": "0.0-4.0-0.0",
      "responseType": "finish",
      "participantID": "zjm2o6pbuhkp9dmtmv20m9k1juposlsg",
      "conditionNumber": 1
    },
    {
      "rt": 4311,
      "responses": "{\"Q0\":2}",
      "trial_type": "survey-likert",
      "trial_index": 22,
      "time_elapsed": 198462,
      "internal_node_id": "0.0-4.0-0.1",
      "responseType": "finish",
      "participantID": "zjm2o6pbuhkp9dmtmv20m9k1juposlsg",
      "conditionNumber": 1
    }
  ],
  "__v": 0
},{
  "_id": {
    "$oid": "604042e459c63e0004a8b6c3"
  },
  "data": {
    "responseType": "start",
    "participantID": "hljdj3dbn13svvlo6xmoafspaplbfbrc",
    "conditionNumber": 1,
    "anagrams_seen": ">#BRID\n<br>"
  },
  "__v": 0
},{
  "_id": {
    "$oid": "604042ef59c63e0004a8b6c4"
  },
  "data": {
    "responseType": "start",
    "participantID": "yt52nnq124qon9kh6jv0fe3afjffgyn5",
    "conditionNumber": 1,
    "anagrams_seen": ">#KNIG\n<br>"
  },
  "__v": 0
},{
  "_id": {
    "$oid": "6040430059c63e0004a8b6c5"
  },
  "data": {
    "responseType": "start",
    "participantID": "ose6h43l58bb1v46t6v6fvrgq2vlkdlb",
    "conditionNumber": 0,
    "anagrams_seen": ">#BRID\n<br>"
  },
  "__v": 0
},{
  "_id": {
    "$oid": "6040430959c63e0004a8b6c6"
  },
  "data": {
    "responseType": "start",
    "participantID": "watx53bx8atd8g8wcbxd1ojvwl4mcrvc",
    "conditionNumber": 1,
    "anagrams_seen": ">#SONW\n<br>"
  },
  "__v": 0
},{
  "_id": {
    "$oid": "6040432059c63e0004a8b6c7"
  },
  "data": [
    {
      "rt": 6806,
      "responses": "{\"Q0\":\" I consent to participate\"}",
      "trial_type": "survey-multi-choice",
      "trial_index": 0,
      "time_elapsed": 6835,
      "internal_node_id": "0.0-0.0",
      "responseType": "finish",
      "participantID": "l696v4d5johdd4cdvu2hz09sbr38pwwq",
      "conditionNumber": 0
    },
    {
      "trial_type": "call-function",
      "trial_index": 1,
      "time_elapsed": 6850,
      "internal_node_id": "0.0-1.0",
      "responseType": "finish",
      "participantID": "l696v4d5johdd4cdvu2hz09sbr38pwwq",
      "conditionNumber": 0
    },
    {
      "view_history": "[{\"page_index\":0,\"viewing_time\":3525},{\"page_index\":1,\"viewing_time\":13238},{\"page_index\":2,\"viewing_time\":7157}]",
      "rt": 23923,
      "trial_type": "instructions",
      "trial_index": 2,
      "time_elapsed": 30774,
      "internal_node_id": "0.0-2.0",
      "responseType": "finish",
      "participantID": "l696v4d5johdd4cdvu2hz09sbr38pwwq",
      "conditionNumber": 0
    },
    {
      "rt": 3151,
      "stimulus": "<blockquote>\n  <p>Now an anagram will be shown to you. <br><br> Press 'v' to view the next anagram.</p>\n</blockquote>",
      "key_press": 86,
      "trial_type": "html-keyboard-response",
      "trial_index": 3,
      "time_elapsed": 33930,
      "internal_node_id": "0.0-3.0-0.0",
      "responseType": "finish",
      "participantID": "l696v4d5johdd4cdvu2hz09sbr38pwwq",
      "conditionNumber": 0
    },
    {
      "rt": null,
      "stimulus": "<blockquote>\n  <h1 id=\"aneplix\">ANEPLIX</h1>\n  <p><br></p>\n</blockquote>",
      "key_press": null,
      "trial_type": "html-keyboard-response",
      "trial_index": 4,
      "time_elapsed": 44942,
      "internal_node_id": "0.0-3.0-1.0",
      "responseType": "finish",
      "participantID": "l696v4d5johdd4cdvu2hz09sbr38pwwq",
      "conditionNumber": 0
    },
    {
      "rt": 2710,
      "responses": "{\"Q0\":0}",
      "trial_type": "survey-likert",
      "trial_index": 5,
      "time_elapsed": 47657,
      "internal_node_id": "0.0-3.0-2.0",
      "responseType": "finish",
      "participantID": "l696v4d5johdd4cdvu2hz09sbr38pwwq",
      "conditionNumber": 0
    },
    {
      "rt": 11882,
      "responses": "{\"Q0\":1}",
      "trial_type": "survey-likert",
      "trial_index": 6,
      "time_elapsed": 59544,
      "internal_node_id": "0.0-3.0-3.0",
      "responseType": "finish",
      "participantID": "l696v4d5johdd4cdvu2hz09sbr38pwwq",
      "conditionNumber": 0
    },
    {
      "rt": 2457,
      "stimulus": "<blockquote>\n  <p>Now an anagram will be shown to you. <br><br> Press 'v' to view the next anagram.</p>\n</blockquote>",
      "key_press": 86,
      "trial_type": "html-keyboard-response",
      "trial_index": 7,
      "time_elapsed": 62007,
      "internal_node_id": "0.0-3.0-4.0",
      "responseType": "finish",
      "participantID": "l696v4d5johdd4cdvu2hz09sbr38pwwq",
      "conditionNumber": 0
    },
    {
      "rt": null,
      "stimulus": "<blockquote>\n  <h1 id=\"dalrbeu\">DALRBEU</h1>\n  <p><br></p>\n</blockquote>",
      "key_press": null,
      "trial_type": "html-keyboard-response",
      "trial_index": 8,
      "time_elapsed": 73014,
      "internal_node_id": "0.0-3.0-5.0",
      "responseType": "finish",
      "participantID": "l696v4d5johdd4cdvu2hz09sbr38pwwq",
      "conditionNumber": 0
    },
    {
      "rt": 2549,
      "responses": "{\"Q0\":0}",
      "trial_type": "survey-likert",
      "trial_index": 9,
      "time_elapsed": 75569,
      "internal_node_id": "0.0-3.0-6.0",
      "responseType": "finish",
      "participantID": "l696v4d5johdd4cdvu2hz09sbr38pwwq",
      "conditionNumber": 0
    },
    {
      "rt": 2883,
      "responses": "{\"Q0\":2}",
      "trial_type": "survey-likert",
      "trial_index": 10,
      "time_elapsed": 78458,
      "internal_node_id": "0.0-3.0-7.0",
      "responseType": "finish",
      "participantID": "l696v4d5johdd4cdvu2hz09sbr38pwwq",
      "conditionNumber": 0
    },
    {
      "rt": 1718,
      "stimulus": "<blockquote>\n  <p>Now an anagram will be shown to you. <br><br> Press 'v' to view the next anagram.</p>\n</blockquote>",
      "key_press": 86,
      "trial_type": "html-keyboard-response",
      "trial_index": 11,
      "time_elapsed": 80180,
      "internal_node_id": "0.0-3.0-8.0",
      "responseType": "finish",
      "participantID": "l696v4d5johdd4cdvu2hz09sbr38pwwq",
      "conditionNumber": 0
    },
    {
      "rt": null,
      "stimulus": "<blockquote>\n  <h1 id=\"jwaalky\">JWAALKY</h1>\n  <p><br></p>\n</blockquote>",
      "key_press": null,
      "trial_type": "html-keyboard-response",
      "trial_index": 12,
      "time_elapsed": 91184,
      "internal_node_id": "0.0-3.0-9.0",
      "responseType": "finish",
      "participantID": "l696v4d5johdd4cdvu2hz09sbr38pwwq",
      "conditionNumber": 0
    },
    {
      "rt": 1762,
      "responses": "{\"Q0\":0}",
      "trial_type": "survey-likert",
      "trial_index": 13,
      "time_elapsed": 92952,
      "internal_node_id": "0.0-3.0-10.0",
      "responseType": "finish",
      "participantID": "l696v4d5johdd4cdvu2hz09sbr38pwwq",
      "conditionNumber": 0
    },
    {
      "rt": 3125,
      "responses": "{\"Q0\":2}",
      "trial_type": "survey-likert",
      "trial_index": 14,
      "time_elapsed": 96083,
      "internal_node_id": "0.0-3.0-11.0",
      "responseType": "finish",
      "participantID": "l696v4d5johdd4cdvu2hz09sbr38pwwq",
      "conditionNumber": 0
    },
    {
      "rt": 1322,
      "stimulus": "<blockquote>\n  <p>Now an anagram will be shown to you. <br><br> Press 'v' to view the next anagram.</p>\n</blockquote>",
      "key_press": 86,
      "trial_type": "html-keyboard-response",
      "trial_index": 15,
      "time_elapsed": 97409,
      "internal_node_id": "0.0-3.0-12.0",
      "responseType": "finish",
      "participantID": "l696v4d5johdd4cdvu2hz09sbr38pwwq",
      "conditionNumber": 0
    },
    {
      "rt": null,
      "stimulus": "<blockquote>\n  <h1 id=\"khaomcm\">KHAOMCM</h1>\n  <p><br></p>\n</blockquote>",
      "key_press": null,
      "trial_type": "html-keyboard-response",
      "trial_index": 16,
      "time_elapsed": 108421,
      "internal_node_id": "0.0-3.0-13.0",
      "responseType": "finish",
      "participantID": "l696v4d5johdd4cdvu2hz09sbr38pwwq",
      "conditionNumber": 0
    },
    {
      "rt": 2012,
      "responses": "{\"Q0\":0}",
      "trial_type": "survey-likert",
      "trial_index": 17,
      "time_elapsed": 110436,
      "internal_node_id": "0.0-3.0-14.0",
      "responseType": "finish",
      "participantID": "l696v4d5johdd4cdvu2hz09sbr38pwwq",
      "conditionNumber": 0
    },
    {
      "rt": 2450,
      "responses": "{\"Q0\":3}",
      "trial_type": "survey-likert",
      "trial_index": 18,
      "time_elapsed": 112894,
      "internal_node_id": "0.0-3.0-15.0",
      "responseType": "finish",
      "participantID": "l696v4d5johdd4cdvu2hz09sbr38pwwq",
      "conditionNumber": 0
    },
    {
      "rt": 2283,
      "stimulus": "<blockquote>\n  <p>Now an anagram will be shown to you. <br><br> Press 'v' to view the next anagram.</p>\n</blockquote>",
      "key_press": 86,
      "trial_type": "html-keyboard-response",
      "trial_index": 19,
      "time_elapsed": 115181,
      "internal_node_id": "0.0-3.0-16.0",
      "responseType": "finish",
      "participantID": "l696v4d5johdd4cdvu2hz09sbr38pwwq",
      "conditionNumber": 0
    },
    {
      "rt": null,
      "stimulus": "<blockquote>\n  <h1 id=\"brid\">BRID</h1>\n  <p><br></p>\n</blockquote>",
      "key_press": null,
      "trial_type": "html-keyboard-response",
      "trial_index": 20,
      "time_elapsed": 126185,
      "internal_node_id": "0.0-3.0-17.0",
      "responseType": "finish",
      "participantID": "l696v4d5johdd4cdvu2hz09sbr38pwwq",
      "conditionNumber": 0
    },
    {
      "rt": 1757,
      "responses": "{\"Q0\":1}",
      "trial_type": "survey-likert",
      "trial_index": 21,
      "time_elapsed": 127947,
      "internal_node_id": "0.0-4.0-0.0",
      "responseType": "finish",
      "participantID": "l696v4d5johdd4cdvu2hz09sbr38pwwq",
      "conditionNumber": 0
    },
    {
      "rt": 2066,
      "responses": "{\"Q0\":6}",
      "trial_type": "survey-likert",
      "trial_index": 22,
      "time_elapsed": 130020,
      "internal_node_id": "0.0-4.0-0.1",
      "responseType": "finish",
      "participantID": "l696v4d5johdd4cdvu2hz09sbr38pwwq",
      "conditionNumber": 0
    }
  ],
  "__v": 0
},{
  "_id": {
    "$oid": "6040432159c63e0004a8b6c8"
  },
  "data": {
    "responseType": "start",
    "participantID": "8o1lzcdgnzx2e8vpb519epzva3scmpj5",
    "conditionNumber": 1,
    "anagrams_seen": ">#BLUK\n<br>"
  },
  "__v": 0
},{
  "_id": {
    "$oid": "6040434859c63e0004a8b6c9"
  },
  "data": {
    "responseType": "start",
    "participantID": "7qfy4bhtuhfh6gxt6usy8n8vz6sc58en",
    "conditionNumber": 1,
    "anagrams_seen": ">#BRID\n<br>"
  },
  "__v": 0
},{
  "_id": {
    "$oid": "6040436859c63e0004a8b6ca"
  },
  "data": [
    {
      "rt": 5492,
      "responses": "{\"Q0\":\" I consent to participate\"}",
      "trial_type": "survey-multi-choice",
      "trial_index": 0,
      "time_elapsed": 5518,
      "internal_node_id": "0.0-0.0",
      "responseType": "finish",
      "participantID": "hljdj3dbn13svvlo6xmoafspaplbfbrc",
      "conditionNumber": 1
    },
    {
      "trial_type": "call-function",
      "trial_index": 1,
      "time_elapsed": 5536,
      "internal_node_id": "0.0-1.0",
      "responseType": "finish",
      "participantID": "hljdj3dbn13svvlo6xmoafspaplbfbrc",
      "conditionNumber": 1
    },
    {
      "view_history": "[{\"page_index\":0,\"viewing_time\":4082},{\"page_index\":1,\"viewing_time\":10758},{\"page_index\":2,\"viewing_time\":1926}]",
      "rt": 16771,
      "trial_type": "instructions",
      "trial_index": 2,
      "time_elapsed": 22308,
      "internal_node_id": "0.0-2.0",
      "responseType": "finish",
      "participantID": "hljdj3dbn13svvlo6xmoafspaplbfbrc",
      "conditionNumber": 1
    },
    {
      "rt": 4480,
      "stimulus": "<blockquote>\n  <p>Now an anagram will be shown to you. <br><br> Press 'v' to view the next anagram.</p>\n</blockquote>",
      "key_press": 86,
      "trial_type": "html-keyboard-response",
      "trial_index": 3,
      "time_elapsed": 26792,
      "internal_node_id": "0.0-3.0-0.0",
      "responseType": "finish",
      "participantID": "hljdj3dbn13svvlo6xmoafspaplbfbrc",
      "conditionNumber": 1
    },
    {
      "rt": null,
      "stimulus": "<blockquote>\n  <h1 id=\"pitn\">PITN</h1>\n  <p><br></p>\n</blockquote>",
      "key_press": null,
      "trial_type": "html-keyboard-response",
      "trial_index": 4,
      "time_elapsed": 37794,
      "internal_node_id": "0.0-3.0-1.0",
      "responseType": "finish",
      "participantID": "hljdj3dbn13svvlo6xmoafspaplbfbrc",
      "conditionNumber": 1
    },
    {
      "rt": 3980,
      "responses": "{\"Q0\":0}",
      "trial_type": "survey-likert",
      "trial_index": 5,
      "time_elapsed": 41777,
      "internal_node_id": "0.0-3.0-2.0",
      "responseType": "finish",
      "participantID": "hljdj3dbn13svvlo6xmoafspaplbfbrc",
      "conditionNumber": 1
    },
    {
      "rt": 11055,
      "responses": "{\"Q0\":1}",
      "trial_type": "survey-likert",
      "trial_index": 6,
      "time_elapsed": 52850,
      "internal_node_id": "0.0-3.0-3.0",
      "responseType": "finish",
      "participantID": "hljdj3dbn13svvlo6xmoafspaplbfbrc",
      "conditionNumber": 1
    },
    {
      "rt": 1895,
      "stimulus": "<blockquote>\n  <p>Now an anagram will be shown to you. <br><br> Press 'v' to view the next anagram.</p>\n</blockquote>",
      "key_press": 86,
      "trial_type": "html-keyboard-response",
      "trial_index": 7,
      "time_elapsed": 54753,
      "internal_node_id": "0.0-3.0-4.0",
      "responseType": "finish",
      "participantID": "hljdj3dbn13svvlo6xmoafspaplbfbrc",
      "conditionNumber": 1
    },
    {
      "rt": null,
      "stimulus": "<blockquote>\n  <h1 id=\"codl\">CODL</h1>\n  <p><br></p>\n</blockquote>",
      "key_press": null,
      "trial_type": "html-keyboard-response",
      "trial_index": 8,
      "time_elapsed": 65756,
      "internal_node_id": "0.0-3.0-5.0",
      "responseType": "finish",
      "participantID": "hljdj3dbn13svvlo6xmoafspaplbfbrc",
      "conditionNumber": 1
    },
    {
      "rt": 3306,
      "responses": "{\"Q0\":0}",
      "trial_type": "survey-likert",
      "trial_index": 9,
      "time_elapsed": 69064,
      "internal_node_id": "0.0-3.0-6.0",
      "responseType": "finish",
      "participantID": "hljdj3dbn13svvlo6xmoafspaplbfbrc",
      "conditionNumber": 1
    },
    {
      "rt": 7059,
      "responses": "{\"Q0\":1}",
      "trial_type": "survey-likert",
      "trial_index": 10,
      "time_elapsed": 76129,
      "internal_node_id": "0.0-3.0-7.0",
      "responseType": "finish",
      "participantID": "hljdj3dbn13svvlo6xmoafspaplbfbrc",
      "conditionNumber": 1
    },
    {
      "rt": 1563,
      "stimulus": "<blockquote>\n  <p>Now an anagram will be shown to you. <br><br> Press 'v' to view the next anagram.</p>\n</blockquote>",
      "key_press": 86,
      "trial_type": "html-keyboard-response",
      "trial_index": 11,
      "time_elapsed": 77707,
      "internal_node_id": "0.0-3.0-8.0",
      "responseType": "finish",
      "participantID": "hljdj3dbn13svvlo6xmoafspaplbfbrc",
      "conditionNumber": 1
    },
    {
      "rt": null,
      "stimulus": "<blockquote>\n  <h1 id=\"fodo\">FODO</h1>\n  <p><br></p>\n</blockquote>",
      "key_press": null,
      "trial_type": "html-keyboard-response",
      "trial_index": 12,
      "time_elapsed": 88709,
      "internal_node_id": "0.0-3.0-9.0",
      "responseType": "finish",
      "participantID": "hljdj3dbn13svvlo6xmoafspaplbfbrc",
      "conditionNumber": 1
    },
    {
      "rt": 4073,
      "responses": "{\"Q0\":1}",
      "trial_type": "survey-likert",
      "trial_index": 13,
      "time_elapsed": 92786,
      "internal_node_id": "0.0-3.0-10.0",
      "responseType": "finish",
      "participantID": "hljdj3dbn13svvlo6xmoafspaplbfbrc",
      "conditionNumber": 1
    },
    {
      "rt": 4698,
      "responses": "{\"Q0\":6}",
      "trial_type": "survey-likert",
      "trial_index": 14,
      "time_elapsed": 97503,
      "internal_node_id": "0.0-3.0-11.0",
      "responseType": "finish",
      "participantID": "hljdj3dbn13svvlo6xmoafspaplbfbrc",
      "conditionNumber": 1
    },
    {
      "rt": 1503,
      "stimulus": "<blockquote>\n  <p>Now an anagram will be shown to you. <br><br> Press 'v' to view the next anagram.</p>\n</blockquote>",
      "key_press": 86,
      "trial_type": "html-keyboard-response",
      "trial_index": 15,
      "time_elapsed": 99010,
      "internal_node_id": "0.0-3.0-12.0",
      "responseType": "finish",
      "participantID": "hljdj3dbn13svvlo6xmoafspaplbfbrc",
      "conditionNumber": 1
    },
    {
      "rt": null,
      "stimulus": "<blockquote>\n  <h1 id=\"fidn\">FIDN</h1>\n  <p><br></p>\n</blockquote>",
      "key_press": null,
      "trial_type": "html-keyboard-response",
      "trial_index": 16,
      "time_elapsed": 110012,
      "internal_node_id": "0.0-3.0-13.0",
      "responseType": "finish",
      "participantID": "hljdj3dbn13svvlo6xmoafspaplbfbrc",
      "conditionNumber": 1
    },
    {
      "rt": 3582,
      "responses": "{\"Q0\":1}",
      "trial_type": "survey-likert",
      "trial_index": 17,
      "time_elapsed": 113596,
      "internal_node_id": "0.0-3.0-14.0",
      "responseType": "finish",
      "participantID": "hljdj3dbn13svvlo6xmoafspaplbfbrc",
      "conditionNumber": 1
    },
    {
      "rt": 3056,
      "responses": "{\"Q0\":5}",
      "trial_type": "survey-likert",
      "trial_index": 18,
      "time_elapsed": 116657,
      "internal_node_id": "0.0-3.0-15.0",
      "responseType": "finish",
      "participantID": "hljdj3dbn13svvlo6xmoafspaplbfbrc",
      "conditionNumber": 1
    },
    {
      "rt": 1151,
      "stimulus": "<blockquote>\n  <p>Now an anagram will be shown to you. <br><br> Press 'v' to view the next anagram.</p>\n</blockquote>",
      "key_press": 86,
      "trial_type": "html-keyboard-response",
      "trial_index": 19,
      "time_elapsed": 117822,
      "internal_node_id": "0.0-3.0-16.0",
      "responseType": "finish",
      "participantID": "hljdj3dbn13svvlo6xmoafspaplbfbrc",
      "conditionNumber": 1
    },
    {
      "rt": null,
      "stimulus": "<blockquote>\n  <h1 id=\"brid\">BRID</h1>\n  <p><br></p>\n</blockquote>",
      "key_press": null,
      "trial_type": "html-keyboard-response",
      "trial_index": 20,
      "time_elapsed": 128823,
      "internal_node_id": "0.0-3.0-17.0",
      "responseType": "finish",
      "participantID": "hljdj3dbn13svvlo6xmoafspaplbfbrc",
      "conditionNumber": 1
    },
    {
      "rt": 2806,
      "responses": "{\"Q0\":1}",
      "trial_type": "survey-likert",
      "trial_index": 21,
      "time_elapsed": 131633,
      "internal_node_id": "0.0-4.0-0.0",
      "responseType": "finish",
      "participantID": "hljdj3dbn13svvlo6xmoafspaplbfbrc",
      "conditionNumber": 1
    },
    {
      "rt": 5344,
      "responses": "{\"Q0\":6}",
      "trial_type": "survey-likert",
      "trial_index": 22,
      "time_elapsed": 136983,
      "internal_node_id": "0.0-4.0-0.1",
      "responseType": "finish",
      "participantID": "hljdj3dbn13svvlo6xmoafspaplbfbrc",
      "conditionNumber": 1
    }
  ],
  "__v": 0
},{
  "_id": {
    "$oid": "6040438a59c63e0004a8b6cb"
  },
  "data": [
    {
      "rt": 52056,
      "responses": "{\"Q0\":\" I consent to participate\"}",
      "trial_type": "survey-multi-choice",
      "trial_index": 0,
      "time_elapsed": 52062,
      "internal_node_id": "0.0-0.0",
      "responseType": "finish",
      "participantID": "yt52nnq124qon9kh6jv0fe3afjffgyn5",
      "conditionNumber": 1
    },
    {
      "trial_type": "call-function",
      "trial_index": 1,
      "time_elapsed": 52067,
      "internal_node_id": "0.0-1.0",
      "responseType": "finish",
      "participantID": "yt52nnq124qon9kh6jv0fe3afjffgyn5",
      "conditionNumber": 1
    },
    {
      "view_history": "[{\"page_index\":0,\"viewing_time\":1802},{\"page_index\":1,\"viewing_time\":26001},{\"page_index\":2,\"viewing_time\":11067}]",
      "rt": 38871,
      "trial_type": "instructions",
      "trial_index": 2,
      "time_elapsed": 90941,
      "internal_node_id": "0.0-2.0",
      "responseType": "finish",
      "participantID": "yt52nnq124qon9kh6jv0fe3afjffgyn5",
      "conditionNumber": 1
    },
    {
      "rt": 7125,
      "stimulus": "<blockquote>\n  <p>Now an anagram will be shown to you. <br><br> Press 'v' to view the next anagram.</p>\n</blockquote>",
      "key_press": 86,
      "trial_type": "html-keyboard-response",
      "trial_index": 3,
      "time_elapsed": 98069,
      "internal_node_id": "0.0-3.0-0.0",
      "responseType": "finish",
      "participantID": "yt52nnq124qon9kh6jv0fe3afjffgyn5",
      "conditionNumber": 1
    },
    {
      "rt": null,
      "stimulus": "<blockquote>\n  <h1 id=\"pitn\">PITN</h1>\n  <p><br></p>\n</blockquote>",
      "key_press": null,
      "trial_type": "html-keyboard-response",
      "trial_index": 4,
      "time_elapsed": 109070,
      "internal_node_id": "0.0-3.0-1.0",
      "responseType": "finish",
      "participantID": "yt52nnq124qon9kh6jv0fe3afjffgyn5",
      "conditionNumber": 1
    },
    {
      "rt": 6219,
      "responses": "{\"Q0\":0}",
      "trial_type": "survey-likert",
      "trial_index": 5,
      "time_elapsed": 115291,
      "internal_node_id": "0.0-3.0-2.0",
      "responseType": "finish",
      "participantID": "yt52nnq124qon9kh6jv0fe3afjffgyn5",
      "conditionNumber": 1
    },
    {
      "rt": 11653,
      "responses": "{\"Q0\":0}",
      "trial_type": "survey-likert",
      "trial_index": 6,
      "time_elapsed": 126948,
      "internal_node_id": "0.0-3.0-3.0",
      "responseType": "finish",
      "participantID": "yt52nnq124qon9kh6jv0fe3afjffgyn5",
      "conditionNumber": 1
    },
    {
      "rt": 1123,
      "stimulus": "<blockquote>\n  <p>Now an anagram will be shown to you. <br><br> Press 'v' to view the next anagram.</p>\n</blockquote>",
      "key_press": 86,
      "trial_type": "html-keyboard-response",
      "trial_index": 7,
      "time_elapsed": 128074,
      "internal_node_id": "0.0-3.0-4.0",
      "responseType": "finish",
      "participantID": "yt52nnq124qon9kh6jv0fe3afjffgyn5",
      "conditionNumber": 1
    },
    {
      "rt": null,
      "stimulus": "<blockquote>\n  <h1 id=\"codl\">CODL</h1>\n  <p><br></p>\n</blockquote>",
      "key_press": null,
      "trial_type": "html-keyboard-response",
      "trial_index": 8,
      "time_elapsed": 139074,
      "internal_node_id": "0.0-3.0-5.0",
      "responseType": "finish",
      "participantID": "yt52nnq124qon9kh6jv0fe3afjffgyn5",
      "conditionNumber": 1
    },
    {
      "rt": 3658,
      "responses": "{\"Q0\":1}",
      "trial_type": "survey-likert",
      "trial_index": 9,
      "time_elapsed": 142734,
      "internal_node_id": "0.0-3.0-6.0",
      "responseType": "finish",
      "participantID": "yt52nnq124qon9kh6jv0fe3afjffgyn5",
      "conditionNumber": 1
    },
    {
      "rt": 3894,
      "responses": "{\"Q0\":6}",
      "trial_type": "survey-likert",
      "trial_index": 10,
      "time_elapsed": 146631,
      "internal_node_id": "0.0-3.0-7.0",
      "responseType": "finish",
      "participantID": "yt52nnq124qon9kh6jv0fe3afjffgyn5",
      "conditionNumber": 1
    },
    {
      "rt": 1455,
      "stimulus": "<blockquote>\n  <p>Now an anagram will be shown to you. <br><br> Press 'v' to view the next anagram.</p>\n</blockquote>",
      "key_press": 86,
      "trial_type": "html-keyboard-response",
      "trial_index": 11,
      "time_elapsed": 148088,
      "internal_node_id": "0.0-3.0-8.0",
      "responseType": "finish",
      "participantID": "yt52nnq124qon9kh6jv0fe3afjffgyn5",
      "conditionNumber": 1
    },
    {
      "rt": null,
      "stimulus": "<blockquote>\n  <h1 id=\"betl\">BETL</h1>\n  <p><br></p>\n</blockquote>",
      "key_press": null,
      "trial_type": "html-keyboard-response",
      "trial_index": 12,
      "time_elapsed": 159095,
      "internal_node_id": "0.0-3.0-9.0",
      "responseType": "finish",
      "participantID": "yt52nnq124qon9kh6jv0fe3afjffgyn5",
      "conditionNumber": 1
    },
    {
      "rt": 3854,
      "responses": "{\"Q0\":1}",
      "trial_type": "survey-likert",
      "trial_index": 13,
      "time_elapsed": 162953,
      "internal_node_id": "0.0-3.0-10.0",
      "responseType": "finish",
      "participantID": "yt52nnq124qon9kh6jv0fe3afjffgyn5",
      "conditionNumber": 1
    },
    {
      "rt": 4311,
      "responses": "{\"Q0\":4}",
      "trial_type": "survey-likert",
      "trial_index": 14,
      "time_elapsed": 167265,
      "internal_node_id": "0.0-3.0-11.0",
      "responseType": "finish",
      "participantID": "yt52nnq124qon9kh6jv0fe3afjffgyn5",
      "conditionNumber": 1
    },
    {
      "rt": 780,
      "stimulus": "<blockquote>\n  <p>Now an anagram will be shown to you. <br><br> Press 'v' to view the next anagram.</p>\n</blockquote>",
      "key_press": 86,
      "trial_type": "html-keyboard-response",
      "trial_index": 15,
      "time_elapsed": 168047,
      "internal_node_id": "0.0-3.0-12.0",
      "responseType": "finish",
      "participantID": "yt52nnq124qon9kh6jv0fe3afjffgyn5",
      "conditionNumber": 1
    },
    {
      "rt": null,
      "stimulus": "<blockquote>\n  <h1 id=\"fidn\">FIDN</h1>\n  <p><br></p>\n</blockquote>",
      "key_press": null,
      "trial_type": "html-keyboard-response",
      "trial_index": 16,
      "time_elapsed": 179053,
      "internal_node_id": "0.0-3.0-13.0",
      "responseType": "finish",
      "participantID": "yt52nnq124qon9kh6jv0fe3afjffgyn5",
      "conditionNumber": 1
    },
    {
      "rt": 2379,
      "responses": "{\"Q0\":1}",
      "trial_type": "survey-likert",
      "trial_index": 17,
      "time_elapsed": 181434,
      "internal_node_id": "0.0-3.0-14.0",
      "responseType": "finish",
      "participantID": "yt52nnq124qon9kh6jv0fe3afjffgyn5",
      "conditionNumber": 1
    },
    {
      "rt": 3796,
      "responses": "{\"Q0\":6}",
      "trial_type": "survey-likert",
      "trial_index": 18,
      "time_elapsed": 185234,
      "internal_node_id": "0.0-3.0-15.0",
      "responseType": "finish",
      "participantID": "yt52nnq124qon9kh6jv0fe3afjffgyn5",
      "conditionNumber": 1
    },
    {
      "rt": 1412,
      "stimulus": "<blockquote>\n  <p>Now an anagram will be shown to you. <br><br> Press 'v' to view the next anagram.</p>\n</blockquote>",
      "key_press": 86,
      "trial_type": "html-keyboard-response",
      "trial_index": 19,
      "time_elapsed": 186646,
      "internal_node_id": "0.0-3.0-16.0",
      "responseType": "finish",
      "participantID": "yt52nnq124qon9kh6jv0fe3afjffgyn5",
      "conditionNumber": 1
    },
    {
      "rt": null,
      "stimulus": "<blockquote>\n  <h1 id=\"knig\">KNIG</h1>\n  <p><br></p>\n</blockquote>",
      "key_press": null,
      "trial_type": "html-keyboard-response",
      "trial_index": 20,
      "time_elapsed": 197652,
      "internal_node_id": "0.0-3.0-17.0",
      "responseType": "finish",
      "participantID": "yt52nnq124qon9kh6jv0fe3afjffgyn5",
      "conditionNumber": 1
    },
    {
      "rt": 4388,
      "responses": "{\"Q0\":1}",
      "trial_type": "survey-likert",
      "trial_index": 21,
      "time_elapsed": 202043,
      "internal_node_id": "0.0-4.0-0.0",
      "responseType": "finish",
      "participantID": "yt52nnq124qon9kh6jv0fe3afjffgyn5",
      "conditionNumber": 1
    },
    {
      "rt": 5022,
      "responses": "{\"Q0\":6}",
      "trial_type": "survey-likert",
      "trial_index": 22,
      "time_elapsed": 207067,
      "internal_node_id": "0.0-4.0-0.1",
      "responseType": "finish",
      "participantID": "yt52nnq124qon9kh6jv0fe3afjffgyn5",
      "conditionNumber": 1
    }
  ],
  "__v": 0
},{
  "_id": {
    "$oid": "6040439559c63e0004a8b6cc"
  },
  "data": [
    {
      "rt": 5385,
      "responses": "{\"Q0\":\" I consent to participate\"}",
      "trial_type": "survey-multi-choice",
      "trial_index": 0,
      "time_elapsed": 5389,
      "internal_node_id": "0.0-0.0",
      "responseType": "finish",
      "participantID": "ose6h43l58bb1v46t6v6fvrgq2vlkdlb",
      "conditionNumber": 0
    },
    {
      "trial_type": "call-function",
      "trial_index": 1,
      "time_elapsed": 5393,
      "internal_node_id": "0.0-1.0",
      "responseType": "finish",
      "participantID": "ose6h43l58bb1v46t6v6fvrgq2vlkdlb",
      "conditionNumber": 0
    },
    {
      "view_history": "[{\"page_index\":0,\"viewing_time\":2038},{\"page_index\":1,\"viewing_time\":1128},{\"page_index\":2,\"viewing_time\":998}]",
      "rt": 4165,
      "trial_type": "instructions",
      "trial_index": 2,
      "time_elapsed": 9559,
      "internal_node_id": "0.0-2.0",
      "responseType": "finish",
      "participantID": "ose6h43l58bb1v46t6v6fvrgq2vlkdlb",
      "conditionNumber": 0
    },
    {
      "rt": 1392,
      "stimulus": "<blockquote>\n  <p>Now an anagram will be shown to you. <br><br> Press 'v' to view the next anagram.</p>\n</blockquote>",
      "key_press": 86,
      "trial_type": "html-keyboard-response",
      "trial_index": 3,
      "time_elapsed": 10953,
      "internal_node_id": "0.0-3.0-0.0",
      "responseType": "finish",
      "participantID": "ose6h43l58bb1v46t6v6fvrgq2vlkdlb",
      "conditionNumber": 0
    },
    {
      "rt": null,
      "stimulus": "<blockquote>\n  <h1 id=\"khaomcm\">KHAOMCM</h1>\n  <p><br></p>\n</blockquote>",
      "key_press": null,
      "trial_type": "html-keyboard-response",
      "trial_index": 4,
      "time_elapsed": 21955,
      "internal_node_id": "0.0-3.0-1.0",
      "responseType": "finish",
      "participantID": "ose6h43l58bb1v46t6v6fvrgq2vlkdlb",
      "conditionNumber": 0
    },
    {
      "rt": 6166,
      "responses": "{\"Q0\":0}",
      "trial_type": "survey-likert",
      "trial_index": 5,
      "time_elapsed": 28123,
      "internal_node_id": "0.0-3.0-2.0",
      "responseType": "finish",
      "participantID": "ose6h43l58bb1v46t6v6fvrgq2vlkdlb",
      "conditionNumber": 0
    },
    {
      "rt": 33012,
      "responses": "{\"Q0\":4}",
      "trial_type": "survey-likert",
      "trial_index": 6,
      "time_elapsed": 61137,
      "internal_node_id": "0.0-3.0-3.0",
      "responseType": "finish",
      "participantID": "ose6h43l58bb1v46t6v6fvrgq2vlkdlb",
      "conditionNumber": 0
    },
    {
      "rt": 2764,
      "stimulus": "<blockquote>\n  <p>Now an anagram will be shown to you. <br><br> Press 'v' to view the next anagram.</p>\n</blockquote>",
      "key_press": 86,
      "trial_type": "html-keyboard-response",
      "trial_index": 7,
      "time_elapsed": 63903,
      "internal_node_id": "0.0-3.0-4.0",
      "responseType": "finish",
      "participantID": "ose6h43l58bb1v46t6v6fvrgq2vlkdlb",
      "conditionNumber": 0
    },
    {
      "rt": null,
      "stimulus": "<blockquote>\n  <h1 id=\"ayugnht\">AYUGNHT</h1>\n  <p><br></p>\n</blockquote>",
      "key_press": null,
      "trial_type": "html-keyboard-response",
      "trial_index": 8,
      "time_elapsed": 74904,
      "internal_node_id": "0.0-3.0-5.0",
      "responseType": "finish",
      "participantID": "ose6h43l58bb1v46t6v6fvrgq2vlkdlb",
      "conditionNumber": 0
    },
    {
      "rt": 3385,
      "responses": "{\"Q0\":1}",
      "trial_type": "survey-likert",
      "trial_index": 9,
      "time_elapsed": 78291,
      "internal_node_id": "0.0-3.0-6.0",
      "responseType": "finish",
      "participantID": "ose6h43l58bb1v46t6v6fvrgq2vlkdlb",
      "conditionNumber": 0
    },
    {
      "rt": 6935,
      "responses": "{\"Q0\":3}",
      "trial_type": "survey-likert",
      "trial_index": 10,
      "time_elapsed": 85227,
      "internal_node_id": "0.0-3.0-7.0",
      "responseType": "finish",
      "participantID": "ose6h43l58bb1v46t6v6fvrgq2vlkdlb",
      "conditionNumber": 0
    },
    {
      "rt": 2025,
      "stimulus": "<blockquote>\n  <p>Now an anagram will be shown to you. <br><br> Press 'v' to view the next anagram.</p>\n</blockquote>",
      "key_press": 86,
      "trial_type": "html-keyboard-response",
      "trial_index": 11,
      "time_elapsed": 87254,
      "internal_node_id": "0.0-3.0-8.0",
      "responseType": "finish",
      "participantID": "ose6h43l58bb1v46t6v6fvrgq2vlkdlb",
      "conditionNumber": 0
    },
    {
      "rt": null,
      "stimulus": "<blockquote>\n  <h1 id=\"jwaalky\">JWAALKY</h1>\n  <p><br></p>\n</blockquote>",
      "key_press": null,
      "trial_type": "html-keyboard-response",
      "trial_index": 12,
      "time_elapsed": 98255,
      "internal_node_id": "0.0-3.0-9.0",
      "responseType": "finish",
      "participantID": "ose6h43l58bb1v46t6v6fvrgq2vlkdlb",
      "conditionNumber": 0
    },
    {
      "rt": 4305,
      "responses": "{\"Q0\":0}",
      "trial_type": "survey-likert",
      "trial_index": 13,
      "time_elapsed": 102561,
      "internal_node_id": "0.0-3.0-10.0",
      "responseType": "finish",
      "participantID": "ose6h43l58bb1v46t6v6fvrgq2vlkdlb",
      "conditionNumber": 0
    },
    {
      "rt": 5568,
      "responses": "{\"Q0\":4}",
      "trial_type": "survey-likert",
      "trial_index": 14,
      "time_elapsed": 108131,
      "internal_node_id": "0.0-3.0-11.0",
      "responseType": "finish",
      "participantID": "ose6h43l58bb1v46t6v6fvrgq2vlkdlb",
      "conditionNumber": 0
    },
    {
      "rt": 1947,
      "stimulus": "<blockquote>\n  <p>Now an anagram will be shown to you. <br><br> Press 'v' to view the next anagram.</p>\n</blockquote>",
      "key_press": 86,
      "trial_type": "html-keyboard-response",
      "trial_index": 15,
      "time_elapsed": 110080,
      "internal_node_id": "0.0-3.0-12.0",
      "responseType": "finish",
      "participantID": "ose6h43l58bb1v46t6v6fvrgq2vlkdlb",
      "conditionNumber": 0
    },
    {
      "rt": null,
      "stimulus": "<blockquote>\n  <h1 id=\"aneplix\">ANEPLIX</h1>\n  <p><br></p>\n</blockquote>",
      "key_press": null,
      "trial_type": "html-keyboard-response",
      "trial_index": 16,
      "time_elapsed": 121082,
      "internal_node_id": "0.0-3.0-13.0",
      "responseType": "finish",
      "participantID": "ose6h43l58bb1v46t6v6fvrgq2vlkdlb",
      "conditionNumber": 0
    },
    {
      "rt": 3665,
      "responses": "{\"Q0\":0}",
      "trial_type": "survey-likert",
      "trial_index": 17,
      "time_elapsed": 124749,
      "internal_node_id": "0.0-3.0-14.0",
      "responseType": "finish",
      "participantID": "ose6h43l58bb1v46t6v6fvrgq2vlkdlb",
      "conditionNumber": 0
    },
    {
      "rt": 6479,
      "responses": "{\"Q0\":2}",
      "trial_type": "survey-likert",
      "trial_index": 18,
      "time_elapsed": 131231,
      "internal_node_id": "0.0-3.0-15.0",
      "responseType": "finish",
      "participantID": "ose6h43l58bb1v46t6v6fvrgq2vlkdlb",
      "conditionNumber": 0
    },
    {
      "rt": 1336,
      "stimulus": "<blockquote>\n  <p>Now an anagram will be shown to you. <br><br> Press 'v' to view the next anagram.</p>\n</blockquote>",
      "key_press": 86,
      "trial_type": "html-keyboard-response",
      "trial_index": 19,
      "time_elapsed": 132569,
      "internal_node_id": "0.0-3.0-16.0",
      "responseType": "finish",
      "participantID": "ose6h43l58bb1v46t6v6fvrgq2vlkdlb",
      "conditionNumber": 0
    },
    {
      "rt": null,
      "stimulus": "<blockquote>\n  <h1 id=\"brid\">BRID</h1>\n  <p><br></p>\n</blockquote>",
      "key_press": null,
      "trial_type": "html-keyboard-response",
      "trial_index": 20,
      "time_elapsed": 143571,
      "internal_node_id": "0.0-3.0-17.0",
      "responseType": "finish",
      "participantID": "ose6h43l58bb1v46t6v6fvrgq2vlkdlb",
      "conditionNumber": 0
    },
    {
      "rt": 3008,
      "responses": "{\"Q0\":1}",
      "trial_type": "survey-likert",
      "trial_index": 21,
      "time_elapsed": 146580,
      "internal_node_id": "0.0-4.0-0.0",
      "responseType": "finish",
      "participantID": "ose6h43l58bb1v46t6v6fvrgq2vlkdlb",
      "conditionNumber": 0
    },
    {
      "rt": 7063,
      "responses": "{\"Q0\":4}",
      "trial_type": "survey-likert",
      "trial_index": 22,
      "time_elapsed": 153646,
      "internal_node_id": "0.0-4.0-0.1",
      "responseType": "finish",
      "participantID": "ose6h43l58bb1v46t6v6fvrgq2vlkdlb",
      "conditionNumber": 0
    }
  ],
  "__v": 0
},{
  "_id": {
    "$oid": "6040439a59c63e0004a8b6cd"
  },
  "data": {
    "responseType": "start",
    "participantID": "1ymo1yk2q1s179dd8fd383qumgnhyz1s",
    "conditionNumber": 1,
    "anagrams_seen": ">#BRID\n<br>"
  },
  "__v": 0
},{
  "_id": {
    "$oid": "604043a059c63e0004a8b6ce"
  },
  "data": {
    "responseType": "start",
    "participantID": "oh14ydvzkjmyk90vtuxl2grhopr6vsk8",
    "conditionNumber": 0,
    "anagrams_seen": ">#GLOD\n<br>"
  },
  "__v": 0
},{
  "_id": {
    "$oid": "604043a259c63e0004a8b6cf"
  },
  "data": {
    "responseType": "start",
    "participantID": "dxsmffa1g8p2j24cxvmdtdbq02sx7cok",
    "conditionNumber": 0,
    "anagrams_seen": ">#SONW\n<br>"
  },
  "__v": 0
},{
  "_id": {
    "$oid": "604043a359c63e0004a8b6d0"
  },
  "data": {
    "responseType": "start",
    "participantID": "sm632vem85q1p2u46nk8wqbldhacr5ug",
    "conditionNumber": 1,
    "anagrams_seen": ">#SONW\n<br>"
  },
  "__v": 0
},{
  "_id": {
    "$oid": "604043a459c63e0004a8b6d1"
  },
  "data": {
    "responseType": "start",
    "participantID": "3e08jf2bwd1phfsd9guwc9oj7dhfulkh",
    "conditionNumber": 1,
    "anagrams_seen": ">#GLOD\n<br>"
  },
  "__v": 0
},{
  "_id": {
    "$oid": "604043b159c63e0004a8b6d2"
  },
  "data": [
    {
      "rt": 4741,
      "responses": "{\"Q0\":\" I consent to participate\"}",
      "trial_type": "survey-multi-choice",
      "trial_index": 0,
      "time_elapsed": 4744,
      "internal_node_id": "0.0-0.0",
      "responseType": "finish",
      "participantID": "watx53bx8atd8g8wcbxd1ojvwl4mcrvc",
      "conditionNumber": 1
    },
    {
      "trial_type": "call-function",
      "trial_index": 1,
      "time_elapsed": 4751,
      "internal_node_id": "0.0-1.0",
      "responseType": "finish",
      "participantID": "watx53bx8atd8g8wcbxd1ojvwl4mcrvc",
      "conditionNumber": 1
    },
    {
      "view_history": "[{\"page_index\":0,\"viewing_time\":2116},{\"page_index\":1,\"viewing_time\":1280},{\"page_index\":2,\"viewing_time\":4039}]",
      "rt": 7435,
      "trial_type": "instructions",
      "trial_index": 2,
      "time_elapsed": 12186,
      "internal_node_id": "0.0-2.0",
      "responseType": "finish",
      "participantID": "watx53bx8atd8g8wcbxd1ojvwl4mcrvc",
      "conditionNumber": 1
    },
    {
      "rt": 4733,
      "stimulus": "<blockquote>\n  <p>Now an anagram will be shown to you. <br><br> Press 'v' to view the next anagram.</p>\n</blockquote>",
      "key_press": 86,
      "trial_type": "html-keyboard-response",
      "trial_index": 3,
      "time_elapsed": 16920,
      "internal_node_id": "0.0-3.0-0.0",
      "responseType": "finish",
      "participantID": "watx53bx8atd8g8wcbxd1ojvwl4mcrvc",
      "conditionNumber": 1
    },
    {
      "rt": null,
      "stimulus": "<blockquote>\n  <h1 id=\"fodo\">FODO</h1>\n  <p><br></p>\n</blockquote>",
      "key_press": null,
      "trial_type": "html-keyboard-response",
      "trial_index": 4,
      "time_elapsed": 28315,
      "internal_node_id": "0.0-3.0-1.0",
      "responseType": "finish",
      "participantID": "watx53bx8atd8g8wcbxd1ojvwl4mcrvc",
      "conditionNumber": 1
    },
    {
      "rt": 4120,
      "responses": "{\"Q0\":1}",
      "trial_type": "survey-likert",
      "trial_index": 5,
      "time_elapsed": 32437,
      "internal_node_id": "0.0-3.0-2.0",
      "responseType": "finish",
      "participantID": "watx53bx8atd8g8wcbxd1ojvwl4mcrvc",
      "conditionNumber": 1
    },
    {
      "rt": 12543,
      "responses": "{\"Q0\":0}",
      "trial_type": "survey-likert",
      "trial_index": 6,
      "time_elapsed": 44985,
      "internal_node_id": "0.0-3.0-3.0",
      "responseType": "finish",
      "participantID": "watx53bx8atd8g8wcbxd1ojvwl4mcrvc",
      "conditionNumber": 1
    },
    {
      "rt": 1988,
      "stimulus": "<blockquote>\n  <p>Now an anagram will be shown to you. <br><br> Press 'v' to view the next anagram.</p>\n</blockquote>",
      "key_press": 86,
      "trial_type": "html-keyboard-response",
      "trial_index": 7,
      "time_elapsed": 46977,
      "internal_node_id": "0.0-3.0-4.0",
      "responseType": "finish",
      "participantID": "watx53bx8atd8g8wcbxd1ojvwl4mcrvc",
      "conditionNumber": 1
    },
    {
      "rt": null,
      "stimulus": "<blockquote>\n  <h1 id=\"fidn\">FIDN</h1>\n  <p><br></p>\n</blockquote>",
      "key_press": null,
      "trial_type": "html-keyboard-response",
      "trial_index": 8,
      "time_elapsed": 57979,
      "internal_node_id": "0.0-3.0-5.0",
      "responseType": "finish",
      "participantID": "watx53bx8atd8g8wcbxd1ojvwl4mcrvc",
      "conditionNumber": 1
    },
    {
      "rt": 7161,
      "responses": "{\"Q0\":1}",
      "trial_type": "survey-likert",
      "trial_index": 9,
      "time_elapsed": 65142,
      "internal_node_id": "0.0-3.0-6.0",
      "responseType": "finish",
      "participantID": "watx53bx8atd8g8wcbxd1ojvwl4mcrvc",
      "conditionNumber": 1
    },
    {
      "rt": 20537,
      "responses": "{\"Q0\":0}",
      "trial_type": "survey-likert",
      "trial_index": 10,
      "time_elapsed": 85683,
      "internal_node_id": "0.0-3.0-7.0",
      "responseType": "finish",
      "participantID": "watx53bx8atd8g8wcbxd1ojvwl4mcrvc",
      "conditionNumber": 1
    },
    {
      "rt": 912,
      "stimulus": "<blockquote>\n  <p>Now an anagram will be shown to you. <br><br> Press 'v' to view the next anagram.</p>\n</blockquote>",
      "key_press": 86,
      "trial_type": "html-keyboard-response",
      "trial_index": 11,
      "time_elapsed": 86599,
      "internal_node_id": "0.0-3.0-8.0",
      "responseType": "finish",
      "participantID": "watx53bx8atd8g8wcbxd1ojvwl4mcrvc",
      "conditionNumber": 1
    },
    {
      "rt": null,
      "stimulus": "<blockquote>\n  <h1 id=\"betl\">BETL</h1>\n  <p><br></p>\n</blockquote>",
      "key_press": null,
      "trial_type": "html-keyboard-response",
      "trial_index": 12,
      "time_elapsed": 97601,
      "internal_node_id": "0.0-3.0-9.0",
      "responseType": "finish",
      "participantID": "watx53bx8atd8g8wcbxd1ojvwl4mcrvc",
      "conditionNumber": 1
    },
    {
      "rt": 7135,
      "responses": "{\"Q0\":1}",
      "trial_type": "survey-likert",
      "trial_index": 13,
      "time_elapsed": 104737,
      "internal_node_id": "0.0-3.0-10.0",
      "responseType": "finish",
      "participantID": "watx53bx8atd8g8wcbxd1ojvwl4mcrvc",
      "conditionNumber": 1
    },
    {
      "rt": 3367,
      "responses": "{\"Q0\":0}",
      "trial_type": "survey-likert",
      "trial_index": 14,
      "time_elapsed": 108109,
      "internal_node_id": "0.0-3.0-11.0",
      "responseType": "finish",
      "participantID": "watx53bx8atd8g8wcbxd1ojvwl4mcrvc",
      "conditionNumber": 1
    },
    {
      "rt": 3179,
      "stimulus": "<blockquote>\n  <p>Now an anagram will be shown to you. <br><br> Press 'v' to view the next anagram.</p>\n</blockquote>",
      "key_press": 86,
      "trial_type": "html-keyboard-response",
      "trial_index": 15,
      "time_elapsed": 111291,
      "internal_node_id": "0.0-3.0-12.0",
      "responseType": "finish",
      "participantID": "watx53bx8atd8g8wcbxd1ojvwl4mcrvc",
      "conditionNumber": 1
    },
    {
      "rt": null,
      "stimulus": "<blockquote>\n  <h1 id=\"codl\">CODL</h1>\n  <p><br></p>\n</blockquote>",
      "key_press": null,
      "trial_type": "html-keyboard-response",
      "trial_index": 16,
      "time_elapsed": 122294,
      "internal_node_id": "0.0-3.0-13.0",
      "responseType": "finish",
      "participantID": "watx53bx8atd8g8wcbxd1ojvwl4mcrvc",
      "conditionNumber": 1
    },
    {
      "rt": 15020,
      "responses": "{\"Q0\":1}",
      "trial_type": "survey-likert",
      "trial_index": 17,
      "time_elapsed": 137315,
      "internal_node_id": "0.0-3.0-14.0",
      "responseType": "finish",
      "participantID": "watx53bx8atd8g8wcbxd1ojvwl4mcrvc",
      "conditionNumber": 1
    },
    {
      "rt": 2406,
      "responses": "{\"Q0\":0}",
      "trial_type": "survey-likert",
      "trial_index": 18,
      "time_elapsed": 139725,
      "internal_node_id": "0.0-3.0-15.0",
      "responseType": "finish",
      "participantID": "watx53bx8atd8g8wcbxd1ojvwl4mcrvc",
      "conditionNumber": 1
    },
    {
      "rt": 1830,
      "stimulus": "<blockquote>\n  <p>Now an anagram will be shown to you. <br><br> Press 'v' to view the next anagram.</p>\n</blockquote>",
      "key_press": 86,
      "trial_type": "html-keyboard-response",
      "trial_index": 19,
      "time_elapsed": 141559,
      "internal_node_id": "0.0-3.0-16.0",
      "responseType": "finish",
      "participantID": "watx53bx8atd8g8wcbxd1ojvwl4mcrvc",
      "conditionNumber": 1
    },
    {
      "rt": null,
      "stimulus": "<blockquote>\n  <h1 id=\"sonw\">SONW</h1>\n  <p><br></p>\n</blockquote>",
      "key_press": null,
      "trial_type": "html-keyboard-response",
      "trial_index": 20,
      "time_elapsed": 152561,
      "internal_node_id": "0.0-3.0-17.0",
      "responseType": "finish",
      "participantID": "watx53bx8atd8g8wcbxd1ojvwl4mcrvc",
      "conditionNumber": 1
    },
    {
      "rt": 16292,
      "responses": "{\"Q0\":1}",
      "trial_type": "survey-likert",
      "trial_index": 21,
      "time_elapsed": 168855,
      "internal_node_id": "0.0-4.0-0.0",
      "responseType": "finish",
      "participantID": "watx53bx8atd8g8wcbxd1ojvwl4mcrvc",
      "conditionNumber": 1
    },
    {
      "rt": 3370,
      "responses": "{\"Q0\":0}",
      "trial_type": "survey-likert",
      "trial_index": 22,
      "time_elapsed": 172230,
      "internal_node_id": "0.0-4.0-0.1",
      "responseType": "finish",
      "participantID": "watx53bx8atd8g8wcbxd1ojvwl4mcrvc",
      "conditionNumber": 1
    }
  ],
  "__v": 0
},{
  "_id": {
    "$oid": "604043bd59c63e0004a8b6d3"
  },
  "data": {
    "responseType": "start",
    "participantID": "y36zq4tb6ffqxmpucnse34pa4yb7y52j",
    "conditionNumber": 0,
    "anagrams_seen": ">#SONW\n<br>"
  },
  "__v": 0
},{
  "_id": {
    "$oid": "604043c359c63e0004a8b6d4"
  },
  "data": {
    "responseType": "start",
    "participantID": "m2jnu4d2drc9r6kplja0mppyeevqpnk3",
    "conditionNumber": 1,
    "anagrams_seen": ">#SONW\n<br>"
  },
  "__v": 0
},{
  "_id": {
    "$oid": "604043c559c63e0004a8b6d5"
  },
  "data": {
    "responseType": "start",
    "participantID": "2lwep5o3draq57bg065ykx8ev6eh2cb9",
    "conditionNumber": 1,
    "anagrams_seen": ">#GLOD\n<br>"
  },
  "__v": 0
},{
  "_id": {
    "$oid": "604043c659c63e0004a8b6d6"
  },
  "data": {
    "responseType": "start",
    "participantID": "47ybeo0mpxz72qqvzl3aevhaguv0czgb",
    "conditionNumber": 1,
    "anagrams_seen": ">#KNIG\n<br>"
  },
  "__v": 0
},{
  "_id": {
    "$oid": "604043d059c63e0004a8b6d7"
  },
  "data": {
    "responseType": "start",
    "participantID": "7wqfnjjqd4epgqy11bvqa8y9pegz4ssm",
    "conditionNumber": 1,
    "anagrams_seen": ">#SONW\n<br>"
  },
  "__v": 0
},{
  "_id": {
    "$oid": "604043d959c63e0004a8b6d8"
  },
  "data": [
    {
      "rt": 6478,
      "responses": "{\"Q0\":\" I consent to participate\"}",
      "trial_type": "survey-multi-choice",
      "trial_index": 0,
      "time_elapsed": 6482,
      "internal_node_id": "0.0-0.0",
      "responseType": "finish",
      "participantID": "8o1lzcdgnzx2e8vpb519epzva3scmpj5",
      "conditionNumber": 1
    },
    {
      "trial_type": "call-function",
      "trial_index": 1,
      "time_elapsed": 6491,
      "internal_node_id": "0.0-1.0",
      "responseType": "finish",
      "participantID": "8o1lzcdgnzx2e8vpb519epzva3scmpj5",
      "conditionNumber": 1
    },
    {
      "view_history": "[{\"page_index\":0,\"viewing_time\":3194},{\"page_index\":1,\"viewing_time\":10022},{\"page_index\":2,\"viewing_time\":8852}]",
      "rt": 22069,
      "trial_type": "instructions",
      "trial_index": 2,
      "time_elapsed": 28560,
      "internal_node_id": "0.0-2.0",
      "responseType": "finish",
      "participantID": "8o1lzcdgnzx2e8vpb519epzva3scmpj5",
      "conditionNumber": 1
    },
    {
      "rt": 4343,
      "stimulus": "<blockquote>\n  <p>Now an anagram will be shown to you. <br><br> Press 'v' to view the next anagram.</p>\n</blockquote>",
      "key_press": 86,
      "trial_type": "html-keyboard-response",
      "trial_index": 3,
      "time_elapsed": 32904,
      "internal_node_id": "0.0-3.0-0.0",
      "responseType": "finish",
      "participantID": "8o1lzcdgnzx2e8vpb519epzva3scmpj5",
      "conditionNumber": 1
    },
    {
      "rt": null,
      "stimulus": "<blockquote>\n  <h1 id=\"codl\">CODL</h1>\n  <p><br></p>\n</blockquote>",
      "key_press": null,
      "trial_type": "html-keyboard-response",
      "trial_index": 4,
      "time_elapsed": 43907,
      "internal_node_id": "0.0-3.0-1.0",
      "responseType": "finish",
      "participantID": "8o1lzcdgnzx2e8vpb519epzva3scmpj5",
      "conditionNumber": 1
    },
    {
      "rt": 5120,
      "responses": "{\"Q0\":1}",
      "trial_type": "survey-likert",
      "trial_index": 5,
      "time_elapsed": 49029,
      "internal_node_id": "0.0-3.0-2.0",
      "responseType": "finish",
      "participantID": "8o1lzcdgnzx2e8vpb519epzva3scmpj5",
      "conditionNumber": 1
    },
    {
      "rt": 26829,
      "responses": "{\"Q0\":4}",
      "trial_type": "survey-likert",
      "trial_index": 6,
      "time_elapsed": 75864,
      "internal_node_id": "0.0-3.0-3.0",
      "responseType": "finish",
      "participantID": "8o1lzcdgnzx2e8vpb519epzva3scmpj5",
      "conditionNumber": 1
    },
    {
      "rt": 2166,
      "stimulus": "<blockquote>\n  <p>Now an anagram will be shown to you. <br><br> Press 'v' to view the next anagram.</p>\n</blockquote>",
      "key_press": 86,
      "trial_type": "html-keyboard-response",
      "trial_index": 7,
      "time_elapsed": 78036,
      "internal_node_id": "0.0-3.0-4.0",
      "responseType": "finish",
      "participantID": "8o1lzcdgnzx2e8vpb519epzva3scmpj5",
      "conditionNumber": 1
    },
    {
      "rt": null,
      "stimulus": "<blockquote>\n  <h1 id=\"fidn\">FIDN</h1>\n  <p><br></p>\n</blockquote>",
      "key_press": null,
      "trial_type": "html-keyboard-response",
      "trial_index": 8,
      "time_elapsed": 89058,
      "internal_node_id": "0.0-3.0-5.0",
      "responseType": "finish",
      "participantID": "8o1lzcdgnzx2e8vpb519epzva3scmpj5",
      "conditionNumber": 1
    },
    {
      "rt": 9226,
      "responses": "{\"Q0\":1}",
      "trial_type": "survey-likert",
      "trial_index": 9,
      "time_elapsed": 98285,
      "internal_node_id": "0.0-3.0-6.0",
      "responseType": "finish",
      "participantID": "8o1lzcdgnzx2e8vpb519epzva3scmpj5",
      "conditionNumber": 1
    },
    {
      "rt": 3937,
      "responses": "{\"Q0\":6}",
      "trial_type": "survey-likert",
      "trial_index": 10,
      "time_elapsed": 102227,
      "internal_node_id": "0.0-3.0-7.0",
      "responseType": "finish",
      "participantID": "8o1lzcdgnzx2e8vpb519epzva3scmpj5",
      "conditionNumber": 1
    },
    {
      "rt": 716,
      "stimulus": "<blockquote>\n  <p>Now an anagram will be shown to you. <br><br> Press 'v' to view the next anagram.</p>\n</blockquote>",
      "key_press": 86,
      "trial_type": "html-keyboard-response",
      "trial_index": 11,
      "time_elapsed": 102949,
      "internal_node_id": "0.0-3.0-8.0",
      "responseType": "finish",
      "participantID": "8o1lzcdgnzx2e8vpb519epzva3scmpj5",
      "conditionNumber": 1
    },
    {
      "rt": null,
      "stimulus": "<blockquote>\n  <h1 id=\"betl\">BETL</h1>\n  <p><br></p>\n</blockquote>",
      "key_press": null,
      "trial_type": "html-keyboard-response",
      "trial_index": 12,
      "time_elapsed": 113952,
      "internal_node_id": "0.0-3.0-9.0",
      "responseType": "finish",
      "participantID": "8o1lzcdgnzx2e8vpb519epzva3scmpj5",
      "conditionNumber": 1
    },
    {
      "rt": 1747,
      "responses": "{\"Q0\":1}",
      "trial_type": "survey-likert",
      "trial_index": 13,
      "time_elapsed": 115701,
      "internal_node_id": "0.0-3.0-10.0",
      "responseType": "finish",
      "participantID": "8o1lzcdgnzx2e8vpb519epzva3scmpj5",
      "conditionNumber": 1
    },
    {
      "rt": 2401,
      "responses": "{\"Q0\":6}",
      "trial_type": "survey-likert",
      "trial_index": 14,
      "time_elapsed": 118107,
      "internal_node_id": "0.0-3.0-11.0",
      "responseType": "finish",
      "participantID": "8o1lzcdgnzx2e8vpb519epzva3scmpj5",
      "conditionNumber": 1
    },
    {
      "rt": 709,
      "stimulus": "<blockquote>\n  <p>Now an anagram will be shown to you. <br><br> Press 'v' to view the next anagram.</p>\n</blockquote>",
      "key_press": 86,
      "trial_type": "html-keyboard-response",
      "trial_index": 15,
      "time_elapsed": 118822,
      "internal_node_id": "0.0-3.0-12.0",
      "responseType": "finish",
      "participantID": "8o1lzcdgnzx2e8vpb519epzva3scmpj5",
      "conditionNumber": 1
    },
    {
      "rt": null,
      "stimulus": "<blockquote>\n  <h1 id=\"pitn\">PITN</h1>\n  <p><br></p>\n</blockquote>",
      "key_press": null,
      "trial_type": "html-keyboard-response",
      "trial_index": 16,
      "time_elapsed": 129824,
      "internal_node_id": "0.0-3.0-13.0",
      "responseType": "finish",
      "participantID": "8o1lzcdgnzx2e8vpb519epzva3scmpj5",
      "conditionNumber": 1
    },
    {
      "rt": 3217,
      "responses": "{\"Q0\":1}",
      "trial_type": "survey-likert",
      "trial_index": 17,
      "time_elapsed": 133042,
      "internal_node_id": "0.0-3.0-14.0",
      "responseType": "finish",
      "participantID": "8o1lzcdgnzx2e8vpb519epzva3scmpj5",
      "conditionNumber": 1
    },
    {
      "rt": 3482,
      "responses": "{\"Q0\":3}",
      "trial_type": "survey-likert",
      "trial_index": 18,
      "time_elapsed": 136529,
      "internal_node_id": "0.0-3.0-15.0",
      "responseType": "finish",
      "participantID": "8o1lzcdgnzx2e8vpb519epzva3scmpj5",
      "conditionNumber": 1
    },
    {
      "rt": 1239,
      "stimulus": "<blockquote>\n  <p>Now an anagram will be shown to you. <br><br> Press 'v' to view the next anagram.</p>\n</blockquote>",
      "key_press": 86,
      "trial_type": "html-keyboard-response",
      "trial_index": 19,
      "time_elapsed": 137773,
      "internal_node_id": "0.0-3.0-16.0",
      "responseType": "finish",
      "participantID": "8o1lzcdgnzx2e8vpb519epzva3scmpj5",
      "conditionNumber": 1
    },
    {
      "rt": null,
      "stimulus": "<blockquote>\n  <h1 id=\"bluk\">BLUK</h1>\n  <p><br></p>\n</blockquote>",
      "key_press": null,
      "trial_type": "html-keyboard-response",
      "trial_index": 20,
      "time_elapsed": 148775,
      "internal_node_id": "0.0-3.0-17.0",
      "responseType": "finish",
      "participantID": "8o1lzcdgnzx2e8vpb519epzva3scmpj5",
      "conditionNumber": 1
    },
    {
      "rt": 5549,
      "responses": "{\"Q0\":1}",
      "trial_type": "survey-likert",
      "trial_index": 21,
      "time_elapsed": 154328,
      "internal_node_id": "0.0-4.0-0.0",
      "responseType": "finish",
      "participantID": "8o1lzcdgnzx2e8vpb519epzva3scmpj5",
      "conditionNumber": 1
    },
    {
      "rt": 35566,
      "responses": "{\"Q0\":4}",
      "trial_type": "survey-likert",
      "trial_index": 22,
      "time_elapsed": 189900,
      "internal_node_id": "0.0-4.0-0.1",
      "responseType": "finish",
      "participantID": "8o1lzcdgnzx2e8vpb519epzva3scmpj5",
      "conditionNumber": 1
    }
  ],
  "__v": 0
},{
  "_id": {
    "$oid": "604043d959c63e0004a8b6d9"
  },
  "data": {
    "responseType": "start",
    "participantID": "f3um6ykl4yok6zjzqb9w8ngrdwy26p8o",
    "conditionNumber": 0,
    "anagrams_seen": ">#KNIG\n<br>"
  },
  "__v": 0
},{
  "_id": {
    "$oid": "604043d959c63e0004a8b6da"
  },
  "data": {
    "responseType": "start",
    "participantID": "xuvok91lw1bowdl0nt9278nbg078zsld",
    "conditionNumber": 0,
    "anagrams_seen": ">#KNIG\n<br>"
  },
  "__v": 0
},{
  "_id": {
    "$oid": "6040440059c63e0004a8b6db"
  },
  "data": {
    "responseType": "start",
    "participantID": "fn906xqb9bhcho0kby8enzwo66fwyv9a",
    "conditionNumber": 0,
    "anagrams_seen": ">#SONW\n<br>"
  },
  "__v": 0
},{
  "_id": {
    "$oid": "6040440459c63e0004a8b6dc"
  },
  "data": {
    "responseType": "start",
    "participantID": "0oax20jluvashs3j3ds2e0df9hs2r1xa",
    "conditionNumber": 0,
    "anagrams_seen": ">#SONW\n<br>"
  },
  "__v": 0
},{
  "_id": {
    "$oid": "6040440959c63e0004a8b6dd"
  },
  "data": {
    "responseType": "start",
    "participantID": "l8gp81796sb8h6rkeyz9agknpkvqjsg7",
    "conditionNumber": 0,
    "anagrams_seen": ">#BRID\n<br>"
  },
  "__v": 0
},{
  "_id": {
    "$oid": "6040441b59c63e0004a8b6de"
  },
  "data": {
    "responseType": "start",
    "participantID": "t1drvgwm3ecaq42f55zdq8n5ruwphk0v",
    "conditionNumber": 0,
    "anagrams_seen": ">#BRID\n<br>"
  },
  "__v": 0
},{
  "_id": {
    "$oid": "6040442f59c63e0004a8b6df"
  },
  "data": {
    "responseType": "start",
    "participantID": "q0envjrep003164nefnh6kj3hpzwn1u0",
    "conditionNumber": 1,
    "anagrams_seen": ">#BRID\n<br>"
  },
  "__v": 0
},{
  "_id": {
    "$oid": "6040444359c63e0004a8b6e0"
  },
  "data": {
    "responseType": "start",
    "participantID": "htbz5rqgvcfubtrdq9w0y7k4hzxgmg7j",
    "conditionNumber": 0,
    "anagrams_seen": ">#BLUK\n<br>"
  },
  "__v": 0
},{
  "_id": {
    "$oid": "6040444859c63e0004a8b6e1"
  },
  "data": [
    {
      "rt": 5910,
      "responses": "{\"Q0\":\" I consent to participate\"}",
      "trial_type": "survey-multi-choice",
      "trial_index": 0,
      "time_elapsed": 5929,
      "internal_node_id": "0.0-0.0",
      "responseType": "finish",
      "participantID": "7wqfnjjqd4epgqy11bvqa8y9pegz4ssm",
      "conditionNumber": 1
    },
    {
      "trial_type": "call-function",
      "trial_index": 1,
      "time_elapsed": 5941,
      "internal_node_id": "0.0-1.0",
      "responseType": "finish",
      "participantID": "7wqfnjjqd4epgqy11bvqa8y9pegz4ssm",
      "conditionNumber": 1
    },
    {
      "view_history": "[{\"page_index\":0,\"viewing_time\":1956},{\"page_index\":1,\"viewing_time\":10346},{\"page_index\":2,\"viewing_time\":6606}]",
      "rt": 18910,
      "trial_type": "instructions",
      "trial_index": 2,
      "time_elapsed": 24853,
      "internal_node_id": "0.0-2.0",
      "responseType": "finish",
      "participantID": "7wqfnjjqd4epgqy11bvqa8y9pegz4ssm",
      "conditionNumber": 1
    },
    {
      "rt": 1820,
      "stimulus": "<blockquote>\n  <p>Now an anagram will be shown to you. <br><br> Press 'v' to view the next anagram.</p>\n</blockquote>",
      "key_press": 86,
      "trial_type": "html-keyboard-response",
      "trial_index": 3,
      "time_elapsed": 26677,
      "internal_node_id": "0.0-3.0-0.0",
      "responseType": "finish",
      "participantID": "7wqfnjjqd4epgqy11bvqa8y9pegz4ssm",
      "conditionNumber": 1
    },
    {
      "rt": null,
      "stimulus": "<blockquote>\n  <h1 id=\"pitn\">PITN</h1>\n  <p><br></p>\n</blockquote>",
      "key_press": null,
      "trial_type": "html-keyboard-response",
      "trial_index": 4,
      "time_elapsed": 37678,
      "internal_node_id": "0.0-3.0-1.0",
      "responseType": "finish",
      "participantID": "7wqfnjjqd4epgqy11bvqa8y9pegz4ssm",
      "conditionNumber": 1
    },
    {
      "rt": 3008,
      "responses": "{\"Q0\":1}",
      "trial_type": "survey-likert",
      "trial_index": 5,
      "time_elapsed": 40690,
      "internal_node_id": "0.0-3.0-2.0",
      "responseType": "finish",
      "participantID": "7wqfnjjqd4epgqy11bvqa8y9pegz4ssm",
      "conditionNumber": 1
    },
    {
      "rt": 9349,
      "responses": "{\"Q0\":2}",
      "trial_type": "survey-likert",
      "trial_index": 6,
      "time_elapsed": 50045,
      "internal_node_id": "0.0-3.0-3.0",
      "responseType": "finish",
      "participantID": "7wqfnjjqd4epgqy11bvqa8y9pegz4ssm",
      "conditionNumber": 1
    },
    {
      "rt": 1330,
      "stimulus": "<blockquote>\n  <p>Now an anagram will be shown to you. <br><br> Press 'v' to view the next anagram.</p>\n</blockquote>",
      "key_press": 86,
      "trial_type": "html-keyboard-response",
      "trial_index": 7,
      "time_elapsed": 51379,
      "internal_node_id": "0.0-3.0-4.0",
      "responseType": "finish",
      "participantID": "7wqfnjjqd4epgqy11bvqa8y9pegz4ssm",
      "conditionNumber": 1
    },
    {
      "rt": null,
      "stimulus": "<blockquote>\n  <h1 id=\"fodo\">FODO</h1>\n  <p><br></p>\n</blockquote>",
      "key_press": null,
      "trial_type": "html-keyboard-response",
      "trial_index": 8,
      "time_elapsed": 62380,
      "internal_node_id": "0.0-3.0-5.0",
      "responseType": "finish",
      "participantID": "7wqfnjjqd4epgqy11bvqa8y9pegz4ssm",
      "conditionNumber": 1
    },
    {
      "rt": 2945,
      "responses": "{\"Q0\":1}",
      "trial_type": "survey-likert",
      "trial_index": 9,
      "time_elapsed": 65330,
      "internal_node_id": "0.0-3.0-6.0",
      "responseType": "finish",
      "participantID": "7wqfnjjqd4epgqy11bvqa8y9pegz4ssm",
      "conditionNumber": 1
    },
    {
      "rt": 2949,
      "responses": "{\"Q0\":2}",
      "trial_type": "survey-likert",
      "trial_index": 10,
      "time_elapsed": 68287,
      "internal_node_id": "0.0-3.0-7.0",
      "responseType": "finish",
      "participantID": "7wqfnjjqd4epgqy11bvqa8y9pegz4ssm",
      "conditionNumber": 1
    },
    {
      "rt": 1273,
      "stimulus": "<blockquote>\n  <p>Now an anagram will be shown to you. <br><br> Press 'v' to view the next anagram.</p>\n</blockquote>",
      "key_press": 86,
      "trial_type": "html-keyboard-response",
      "trial_index": 11,
      "time_elapsed": 69565,
      "internal_node_id": "0.0-3.0-8.0",
      "responseType": "finish",
      "participantID": "7wqfnjjqd4epgqy11bvqa8y9pegz4ssm",
      "conditionNumber": 1
    },
    {
      "rt": null,
      "stimulus": "<blockquote>\n  <h1 id=\"codl\">CODL</h1>\n  <p><br></p>\n</blockquote>",
      "key_press": null,
      "trial_type": "html-keyboard-response",
      "trial_index": 12,
      "time_elapsed": 80567,
      "internal_node_id": "0.0-3.0-9.0",
      "responseType": "finish",
      "participantID": "7wqfnjjqd4epgqy11bvqa8y9pegz4ssm",
      "conditionNumber": 1
    },
    {
      "rt": 2683,
      "responses": "{\"Q0\":1}",
      "trial_type": "survey-likert",
      "trial_index": 13,
      "time_elapsed": 83253,
      "internal_node_id": "0.0-3.0-10.0",
      "responseType": "finish",
      "participantID": "7wqfnjjqd4epgqy11bvqa8y9pegz4ssm",
      "conditionNumber": 1
    },
    {
      "rt": 5192,
      "responses": "{\"Q0\":4}",
      "trial_type": "survey-likert",
      "trial_index": 14,
      "time_elapsed": 88450,
      "internal_node_id": "0.0-3.0-11.0",
      "responseType": "finish",
      "participantID": "7wqfnjjqd4epgqy11bvqa8y9pegz4ssm",
      "conditionNumber": 1
    },
    {
      "rt": 1352,
      "stimulus": "<blockquote>\n  <p>Now an anagram will be shown to you. <br><br> Press 'v' to view the next anagram.</p>\n</blockquote>",
      "key_press": 86,
      "trial_type": "html-keyboard-response",
      "trial_index": 15,
      "time_elapsed": 89806,
      "internal_node_id": "0.0-3.0-12.0",
      "responseType": "finish",
      "participantID": "7wqfnjjqd4epgqy11bvqa8y9pegz4ssm",
      "conditionNumber": 1
    },
    {
      "rt": null,
      "stimulus": "<blockquote>\n  <h1 id=\"fidn\">FIDN</h1>\n  <p><br></p>\n</blockquote>",
      "key_press": null,
      "trial_type": "html-keyboard-response",
      "trial_index": 16,
      "time_elapsed": 100807,
      "internal_node_id": "0.0-3.0-13.0",
      "responseType": "finish",
      "participantID": "7wqfnjjqd4epgqy11bvqa8y9pegz4ssm",
      "conditionNumber": 1
    },
    {
      "rt": 2435,
      "responses": "{\"Q0\":1}",
      "trial_type": "survey-likert",
      "trial_index": 17,
      "time_elapsed": 103245,
      "internal_node_id": "0.0-3.0-14.0",
      "responseType": "finish",
      "participantID": "7wqfnjjqd4epgqy11bvqa8y9pegz4ssm",
      "conditionNumber": 1
    },
    {
      "rt": 4767,
      "responses": "{\"Q0\":3}",
      "trial_type": "survey-likert",
      "trial_index": 18,
      "time_elapsed": 108017,
      "internal_node_id": "0.0-3.0-15.0",
      "responseType": "finish",
      "participantID": "7wqfnjjqd4epgqy11bvqa8y9pegz4ssm",
      "conditionNumber": 1
    },
    {
