{"_id":{"$oid":"5ccf24928e69700004088180"},"data":{"responseType":"start","participantID":"else5hczuxz8potbpbql4vh4y5s4z2by","conditionNumber":1},"__v":0}
{"_id":{"$oid":"5ccf24ab8e69700004088181"},"data":{"responseType":"start","participantID":"xwnovesr3t5swof6j1jscb8m3vp4dttn","conditionNumber":1},"__v":0}
{"_id":{"$oid":"5ccf24b38e69700004088182"},"data":{"responseType":"start","participantID":"o78ab5rnuc08x7xk8g1sl2ojll6l2eq0","conditionNumber":1},"__v":0}
{"_id":{"$oid":"5ccf24bc8e69700004088183"},"data":{"responseType":"start","participantID":"d7gx6112dmebz94tgk555rx3gjkjhfdj","conditionNumber":1},"__v":0}
{"_id":{"$oid":"5ccf24cc8e69700004088184"},"data":{"responseType":"start","participantID":"0u6rq2pxs4qu2qmhe4c32em4soo0e9ak","conditionNumber":0},"__v":0}
{"_id":{"$oid":"5ccf24db8e69700004088185"},"data":{"responseType":"start","participantID":"4zlbr3bz34ejfod0r254t5dm3durgqu8","conditionNumber":1},"__v":0}
{"_id":{"$oid":"5ccf24e88e69700004088186"},"data":{"responseType":"start","participantID":"cg1uy45ebydwhv6tj3xccu6oasenzrsz","conditionNumber":0},"__v":0}
{"_id":{"$oid":"5ccf24ed8e69700004088187"},"data":{"responseType":"start","participantID":"g8cfcys0chex7v9oph5wefb862x8r2pn","conditionNumber":0},"__v":0}
{"_id":{"$oid":"5ccf24f78e69700004088188"},"data":{"responseType":"start","participantID":"1f62yk50da7kl140nzlm1hc7z7mcn7mz","conditionNumber":0},"__v":0}
{"_id":{"$oid":"5ccf24f98e69700004088189"},"data":{"responseType":"start","participantID":"eqdftqnyk3aywcx3m8b3y0je8rzygeue","conditionNumber":1},"__v":0}
{"_id":{"$oid":"5ccf24f98e6970000408818a"},"data":{"responseType":"start","participantID":"sueuzgmoodk26sqyyvbyc1hdewn89kdq","conditionNumber":1},"__v":0}
{"_id":{"$oid":"5ccf25298e6970000408818b"},"data":[{"rt":20852,"responses":"{\"Q0\":\" I consent to participate\"}","trial_type":"survey-multi-choice","trial_index":0,"time_elapsed":20859,"internal_node_id":"0.0-0.0","responseType":"finish","participantID":"else5hczuxz8potbpbql4vh4y5s4z2by","conditionNumber":1},{"trial_type":"call-function","trial_index":1,"time_elapsed":20863,"internal_node_id":"0.0-1.0","responseType":"finish","participantID":"else5hczuxz8potbpbql4vh4y5s4z2by","conditionNumber":1},{"view_history":"[{\"page_index\":0,\"viewing_time\":4709},{\"page_index\":1,\"viewing_time\":9524},{\"page_index\":2,\"viewing_time\":7395}]","rt":21629,"trial_type":"instructions","trial_index":2,"time_elapsed":42493,"internal_node_id":"0.0-2.0","responseType":"finish","participantID":"else5hczuxz8potbpbql4vh4y5s4z2by","conditionNumber":1},{"rt":null,"stimulus":"\u003cblockquote\u003e\n  \u003ch1 id=\"srot\"\u003eSROT\u003c/h1\u003e\n  \u003cp\u003e\u003cbr\u003e\u003c/p\u003e\n\u003c/blockquote\u003e","key_press":null,"trial_type":"html-keyboard-response","trial_index":3,"time_elapsed":53495,"internal_node_id":"0.0-3.0-0.0","responseType":"finish","participantID":"else5hczuxz8potbpbql4vh4y5s4z2by","conditionNumber":1},{"rt":7295,"responses":"{\"Q0\":5}","trial_type":"survey-likert","trial_index":4,"time_elapsed":60792,"internal_node_id":"0.0-3.0-1.0","responseType":"finish","participantID":"else5hczuxz8potbpbql4vh4y5s4z2by","conditionNumber":1},{"rt":13864,"responses":"{\"Q0\":4}","trial_type":"survey-likert","trial_index":5,"time_elapsed":74657,"internal_node_id":"0.0-3.0-2.0","responseType":"finish","participantID":"else5hczuxz8potbpbql4vh4y5s4z2by","conditionNumber":1},{"rt":3309,"stimulus":"\u003cblockquote\u003e\n  \u003cp\u003eNow the next anagram will be shown to you. \u003cbr\u003e\u003cbr\u003e Press 'v' to view the next anagram.\u003c/p\u003e\n\u003c/blockquote\u003e","key_press":86,"trial_type":"html-keyboard-response","trial_index":6,"time_elapsed":77967,"internal_node_id":"0.0-3.0-3.0","responseType":"finish","participantID":"else5hczuxz8potbpbql4vh4y5s4z2by","conditionNumber":1},{"rt":null,"stimulus":"\u003cblockquote\u003e\n  \u003ch1 id=\"bluk\"\u003eBLUK\u003c/h1\u003e\n  \u003cp\u003e\u003cbr\u003e\u003c/p\u003e\n\u003c/blockquote\u003e","key_press":null,"trial_type":"html-keyboard-response","trial_index":7,"time_elapsed":88968,"internal_node_id":"0.0-3.0-4.0","responseType":"finish","participantID":"else5hczuxz8potbpbql4vh4y5s4z2by","conditionNumber":1},{"rt":6602,"responses":"{\"Q0\":5}","trial_type":"survey-likert","trial_index":8,"time_elapsed":95572,"internal_node_id":"0.0-3.0-5.0","responseType":"finish","participantID":"else5hczuxz8potbpbql4vh4y5s4z2by","conditionNumber":1},{"rt":3794,"responses":"{\"Q0\":2}","trial_type":"survey-likert","trial_index":9,"time_elapsed":99368,"internal_node_id":"0.0-3.0-6.0","responseType":"finish","participantID":"else5hczuxz8potbpbql4vh4y5s4z2by","conditionNumber":1},{"rt":2253,"stimulus":"\u003cblockquote\u003e\n  \u003cp\u003eNow the next anagram will be shown to you. \u003cbr\u003e\u003cbr\u003e Press 'v' to view the next anagram.\u003c/p\u003e\n\u003c/blockquote\u003e","key_press":86,"trial_type":"html-keyboard-response","trial_index":10,"time_elapsed":101622,"internal_node_id":"0.0-3.0-7.0","responseType":"finish","participantID":"else5hczuxz8potbpbql4vh4y5s4z2by","conditionNumber":1},{"rt":null,"stimulus":"\u003cblockquote\u003e\n  \u003ch1 id=\"pitn\"\u003ePITN\u003c/h1\u003e\n  \u003cp\u003e\u003cbr\u003e\u003c/p\u003e\n\u003c/blockquote\u003e","key_press":null,"trial_type":"html-keyboard-response","trial_index":11,"time_elapsed":112623,"internal_node_id":"0.0-3.0-8.0","responseType":"finish","participantID":"else5hczuxz8potbpbql4vh4y5s4z2by","conditionNumber":1},{"rt":12528,"responses":"{\"Q0\":3}","trial_type":"survey-likert","trial_index":12,"time_elapsed":125152,"internal_node_id":"0.0-3.0-9.0","responseType":"finish","participantID":"else5hczuxz8potbpbql4vh4y5s4z2by","conditionNumber":1},{"rt":5611,"responses":"{\"Q0\":0}","trial_type":"survey-likert","trial_index":13,"time_elapsed":130765,"internal_node_id":"0.0-3.0-10.0","responseType":"finish","participantID":"else5hczuxz8potbpbql4vh4y5s4z2by","conditionNumber":1},{"rt":1841,"stimulus":"\u003cblockquote\u003e\n  \u003cp\u003eNow the next anagram will be shown to you. \u003cbr\u003e\u003cbr\u003e Press 'v' to view the next anagram.\u003c/p\u003e\n\u003c/blockquote\u003e","key_press":86,"trial_type":"html-keyboard-response","trial_index":14,"time_elapsed":132607,"internal_node_id":"0.0-3.0-11.0","responseType":"finish","participantID":"else5hczuxz8potbpbql4vh4y5s4z2by","conditionNumber":1},{"rt":null,"stimulus":"\u003cblockquote\u003e\n  \u003ch1 id=\"orod\"\u003eOROD\u003c/h1\u003e\n  \u003cp\u003e\u003cbr\u003e\u003c/p\u003e\n\u003c/blockquote\u003e","key_press":null,"trial_type":"html-keyboard-response","trial_index":15,"time_elapsed":143608,"internal_node_id":"0.0-3.0-12.0","responseType":"finish","participantID":"else5hczuxz8potbpbql4vh4y5s4z2by","conditionNumber":1},{"rt":2352,"responses":"{\"Q0\":5}","trial_type":"survey-likert","trial_index":16,"time_elapsed":145961,"internal_node_id":"0.0-3.0-13.0","responseType":"finish","participantID":"else5hczuxz8potbpbql4vh4y5s4z2by","conditionNumber":1},{"rt":5478,"responses":"{\"Q0\":4}","trial_type":"survey-likert","trial_index":17,"time_elapsed":151441,"internal_node_id":"0.0-3.0-14.0","responseType":"finish","participantID":"else5hczuxz8potbpbql4vh4y5s4z2by","conditionNumber":1},{"rt":1511,"stimulus":"\u003cblockquote\u003e\n  \u003cp\u003eNow the next anagram will be shown to you. \u003cbr\u003e\u003cbr\u003e Press 'v' to view the next anagram.\u003c/p\u003e\n\u003c/blockquote\u003e","key_press":86,"trial_type":"html-keyboard-response","trial_index":18,"time_elapsed":152953,"internal_node_id":"0.0-3.0-15.0","responseType":"finish","participantID":"else5hczuxz8potbpbql4vh4y5s4z2by","conditionNumber":1},{"rt":null,"stimulus":"\u003cblockquote\u003e\n  \u003ch1 id=\"dleta\"\u003eDLETA\u003c/h1\u003e\n  \u003cp\u003e\u003cbr\u003e\u003c/p\u003e\n\u003c/blockquote\u003e","key_press":null,"trial_type":"html-keyboard-response","trial_index":19,"time_elapsed":163954,"internal_node_id":"0.0-3.0-16.0","responseType":"finish","participantID":"else5hczuxz8potbpbql4vh4y5s4z2by","conditionNumber":1},{"rt":5134,"responses":"{\"Q0\":4}","trial_type":"survey-likert","trial_index":20,"time_elapsed":169090,"internal_node_id":"0.0-4.0-0.0","responseType":"finish","participantID":"else5hczuxz8potbpbql4vh4y5s4z2by","conditionNumber":1},{"rt":3270,"responses":"{\"Q0\":3}","trial_type":"survey-likert","trial_index":21,"time_elapsed":172361,"internal_node_id":"0.0-4.0-0.1","responseType":"finish","participantID":"else5hczuxz8potbpbql4vh4y5s4z2by","conditionNumber":1}],"__v":0}
{"_id":{"$oid":"5ccf252c8e6970000408818c"},"data":{"responseType":"start","participantID":"2d382gxf8cnvkm34uzc906hnrgv9k34f","conditionNumber":0},"__v":0}
{"_id":{"$oid":"5ccf25438e6970000408818d"},"data":[{"rt":8896,"responses":"{\"Q0\":\" I consent to participate\"}","trial_type":"survey-multi-choice","trial_index":0,"time_elapsed":8912,"internal_node_id":"0.0-0.0","responseType":"finish","participantID":"o78ab5rnuc08x7xk8g1sl2ojll6l2eq0","conditionNumber":1},{"trial_type":"call-function","trial_index":1,"time_elapsed":8922,"internal_node_id":"0.0-1.0","responseType":"finish","participantID":"o78ab5rnuc08x7xk8g1sl2ojll6l2eq0","conditionNumber":1},{"view_history":"[{\"page_index\":0,\"viewing_time\":8322},{\"page_index\":1,\"viewing_time\":9765},{\"page_index\":2,\"viewing_time\":12481}]","rt":30569,"trial_type":"instructions","trial_index":2,"time_elapsed":39492,"internal_node_id":"0.0-2.0","responseType":"finish","participantID":"o78ab5rnuc08x7xk8g1sl2ojll6l2eq0","conditionNumber":1},{"rt":null,"stimulus":"\u003cblockquote\u003e\n  \u003ch1 id=\"srot\"\u003eSROT\u003c/h1\u003e\n  \u003cp\u003e\u003cbr\u003e\u003c/p\u003e\n\u003c/blockquote\u003e","key_press":null,"trial_type":"html-keyboard-response","trial_index":3,"time_elapsed":50495,"internal_node_id":"0.0-3.0-0.0","responseType":"finish","participantID":"o78ab5rnuc08x7xk8g1sl2ojll6l2eq0","conditionNumber":1},{"rt":7947,"responses":"{\"Q0\":5}","trial_type":"survey-likert","trial_index":4,"time_elapsed":58446,"internal_node_id":"0.0-3.0-1.0","responseType":"finish","participantID":"o78ab5rnuc08x7xk8g1sl2ojll6l2eq0","conditionNumber":1},{"rt":10823,"responses":"{\"Q0\":6}","trial_type":"survey-likert","trial_index":5,"time_elapsed":69273,"internal_node_id":"0.0-3.0-2.0","responseType":"finish","participantID":"o78ab5rnuc08x7xk8g1sl2ojll6l2eq0","conditionNumber":1},{"rt":4611,"stimulus":"\u003cblockquote\u003e\n  \u003cp\u003eNow the next anagram will be shown to you. \u003cbr\u003e\u003cbr\u003e Press 'v' to view the next anagram.\u003c/p\u003e\n\u003c/blockquote\u003e","key_press":86,"trial_type":"html-keyboard-response","trial_index":6,"time_elapsed":73886,"internal_node_id":"0.0-3.0-3.0","responseType":"finish","participantID":"o78ab5rnuc08x7xk8g1sl2ojll6l2eq0","conditionNumber":1},{"rt":null,"stimulus":"\u003cblockquote\u003e\n  \u003ch1 id=\"bluk\"\u003eBLUK\u003c/h1\u003e\n  \u003cp\u003e\u003cbr\u003e\u003c/p\u003e\n\u003c/blockquote\u003e","key_press":null,"trial_type":"html-keyboard-response","trial_index":7,"time_elapsed":84889,"internal_node_id":"0.0-3.0-4.0","responseType":"finish","participantID":"o78ab5rnuc08x7xk8g1sl2ojll6l2eq0","conditionNumber":1},{"rt":3643,"responses":"{\"Q0\":5}","trial_type":"survey-likert","trial_index":8,"time_elapsed":88534,"internal_node_id":"0.0-3.0-5.0","responseType":"finish","participantID":"o78ab5rnuc08x7xk8g1sl2ojll6l2eq0","conditionNumber":1},{"rt":5779,"responses":"{\"Q0\":5}","trial_type":"survey-likert","trial_index":9,"time_elapsed":94316,"internal_node_id":"0.0-3.0-6.0","responseType":"finish","participantID":"o78ab5rnuc08x7xk8g1sl2ojll6l2eq0","conditionNumber":1},{"rt":1674,"stimulus":"\u003cblockquote\u003e\n  \u003cp\u003eNow the next anagram will be shown to you. \u003cbr\u003e\u003cbr\u003e Press 'v' to view the next anagram.\u003c/p\u003e\n\u003c/blockquote\u003e","key_press":86,"trial_type":"html-keyboard-response","trial_index":10,"time_elapsed":95993,"internal_node_id":"0.0-3.0-7.0","responseType":"finish","participantID":"o78ab5rnuc08x7xk8g1sl2ojll6l2eq0","conditionNumber":1},{"rt":null,"stimulus":"\u003cblockquote\u003e\n  \u003ch1 id=\"pitn\"\u003ePITN\u003c/h1\u003e\n  \u003cp\u003e\u003cbr\u003e\u003c/p\u003e\n\u003c/blockquote\u003e","key_press":null,"trial_type":"html-keyboard-response","trial_index":11,"time_elapsed":106994,"internal_node_id":"0.0-3.0-8.0","responseType":"finish","participantID":"o78ab5rnuc08x7xk8g1sl2ojll6l2eq0","conditionNumber":1},{"rt":3801,"responses":"{\"Q0\":4}","trial_type":"survey-likert","trial_index":12,"time_elapsed":110798,"internal_node_id":"0.0-3.0-9.0","responseType":"finish","participantID":"o78ab5rnuc08x7xk8g1sl2ojll6l2eq0","conditionNumber":1},{"rt":2975,"responses":"{\"Q0\":3}","trial_type":"survey-likert","trial_index":13,"time_elapsed":113776,"internal_node_id":"0.0-3.0-10.0","responseType":"finish","participantID":"o78ab5rnuc08x7xk8g1sl2ojll6l2eq0","conditionNumber":1},{"rt":1368,"stimulus":"\u003cblockquote\u003e\n  \u003cp\u003eNow the next anagram will be shown to you. \u003cbr\u003e\u003cbr\u003e Press 'v' to view the next anagram.\u003c/p\u003e\n\u003c/blockquote\u003e","key_press":86,"trial_type":"html-keyboard-response","trial_index":14,"time_elapsed":115147,"internal_node_id":"0.0-3.0-11.0","responseType":"finish","participantID":"o78ab5rnuc08x7xk8g1sl2ojll6l2eq0","conditionNumber":1},{"rt":null,"stimulus":"\u003cblockquote\u003e\n  \u003ch1 id=\"orod\"\u003eOROD\u003c/h1\u003e\n  \u003cp\u003e\u003cbr\u003e\u003c/p\u003e\n\u003c/blockquote\u003e","key_press":null,"trial_type":"html-keyboard-response","trial_index":15,"time_elapsed":126149,"internal_node_id":"0.0-3.0-12.0","responseType":"finish","participantID":"o78ab5rnuc08x7xk8g1sl2ojll6l2eq0","conditionNumber":1},{"rt":4021,"responses":"{\"Q0\":3}","trial_type":"survey-likert","trial_index":16,"time_elapsed":130172,"internal_node_id":"0.0-3.0-13.0","responseType":"finish","participantID":"o78ab5rnuc08x7xk8g1sl2ojll6l2eq0","conditionNumber":1},{"rt":3552,"responses":"{\"Q0\":1}","trial_type":"survey-likert","trial_index":17,"time_elapsed":133727,"internal_node_id":"0.0-3.0-14.0","responseType":"finish","participantID":"o78ab5rnuc08x7xk8g1sl2ojll6l2eq0","conditionNumber":1},{"rt":1236,"stimulus":"\u003cblockquote\u003e\n  \u003cp\u003eNow the next anagram will be shown to you. \u003cbr\u003e\u003cbr\u003e Press 'v' to view the next anagram.\u003c/p\u003e\n\u003c/blockquote\u003e","key_press":86,"trial_type":"html-keyboard-response","trial_index":18,"time_elapsed":134965,"internal_node_id":"0.0-3.0-15.0","responseType":"finish","participantID":"o78ab5rnuc08x7xk8g1sl2ojll6l2eq0","conditionNumber":1},{"rt":null,"stimulus":"\u003cblockquote\u003e\n  \u003ch1 id=\"dleta\"\u003eDLETA\u003c/h1\u003e\n  \u003cp\u003e\u003cbr\u003e\u003c/p\u003e\n\u003c/blockquote\u003e","key_press":null,"trial_type":"html-keyboard-response","trial_index":19,"time_elapsed":145968,"internal_node_id":"0.0-3.0-16.0","responseType":"finish","participantID":"o78ab5rnuc08x7xk8g1sl2ojll6l2eq0","conditionNumber":1},{"rt":3024,"responses":"{\"Q0\":4}","trial_type":"survey-likert","trial_index":20,"time_elapsed":148995,"internal_node_id":"0.0-4.0-0.0","responseType":"finish","participantID":"o78ab5rnuc08x7xk8g1sl2ojll6l2eq0","conditionNumber":1},{"rt":3599,"responses":"{\"Q0\":3}","trial_type":"survey-likert","trial_index":21,"time_elapsed":152598,"internal_node_id":"0.0-4.0-0.1","responseType":"finish","participantID":"o78ab5rnuc08x7xk8g1sl2ojll6l2eq0","conditionNumber":1}],"__v":0}
{"_id":{"$oid":"5ccf25458e6970000408818e"},"data":{"responseType":"start","participantID":"qmvvlktpbaqj18a8f541f7bbgm31qbpb","conditionNumber":1},"__v":0}
{"_id":{"$oid":"5ccf25498e6970000408818f"},"data":[{"rt":6962,"responses":"{\"Q0\":\" I consent to participate\"}","trial_type":"survey-multi-choice","trial_index":0,"time_elapsed":6969,"internal_node_id":"0.0-0.0","responseType":"finish","participantID":"0u6rq2pxs4qu2qmhe4c32em4soo0e9ak","conditionNumber":0},{"trial_type":"call-function","trial_index":1,"time_elapsed":6979,"internal_node_id":"0.0-1.0","responseType":"finish","participantID":"0u6rq2pxs4qu2qmhe4c32em4soo0e9ak","conditionNumber":0},{"view_history":"[{\"page_index\":0,\"viewing_time\":4975},{\"page_index\":1,\"viewing_time\":7642},{\"page_index\":2,\"viewing_time\":6834}]","rt":19452,"trial_type":"instructions","trial_index":2,"time_elapsed":26432,"internal_node_id":"0.0-2.0","responseType":"finish","participantID":"0u6rq2pxs4qu2qmhe4c32em4soo0e9ak","conditionNumber":0},{"rt":null,"stimulus":"\u003cblockquote\u003e\n  \u003ch1 id=\"iorcnag\"\u003eIORCNAG\u003c/h1\u003e\n  \u003cp\u003e\u003cbr\u003e\u003c/p\u003e\n\u003c/blockquote\u003e","key_press":null,"trial_type":"html-keyboard-response","trial_index":3,"time_elapsed":37434,"internal_node_id":"0.0-3.0-0.0","responseType":"finish","participantID":"0u6rq2pxs4qu2qmhe4c32em4soo0e9ak","conditionNumber":0},{"rt":6910,"responses":"{\"Q0\":1}","trial_type":"survey-likert","trial_index":4,"time_elapsed":44352,"internal_node_id":"0.0-3.0-1.0","responseType":"finish","participantID":"0u6rq2pxs4qu2qmhe4c32em4soo0e9ak","conditionNumber":0},{"rt":10523,"responses":"{\"Q0\":0}","trial_type":"survey-likert","trial_index":5,"time_elapsed":54878,"internal_node_id":"0.0-3.0-2.0","responseType":"finish","participantID":"0u6rq2pxs4qu2qmhe4c32em4soo0e9ak","conditionNumber":0},{"rt":2825,"stimulus":"\u003cblockquote\u003e\n  \u003cp\u003eNow the next anagram will be shown to you. \u003cbr\u003e\u003cbr\u003e Press 'v' to view the next anagram.\u003c/p\u003e\n\u003c/blockquote\u003e","key_press":86,"trial_type":"html-keyboard-response","trial_index":6,"time_elapsed":57704,"internal_node_id":"0.0-3.0-3.0","responseType":"finish","participantID":"0u6rq2pxs4qu2qmhe4c32em4soo0e9ak","conditionNumber":0},{"rt":null,"stimulus":"\u003cblockquote\u003e\n  \u003ch1 id=\"hnatuyg\"\u003eHNATUYG\u003c/h1\u003e\n  \u003cp\u003e\u003cbr\u003e\u003c/p\u003e\n\u003c/blockquote\u003e","key_press":null,"trial_type":"html-keyboard-response","trial_index":7,"time_elapsed":68705,"internal_node_id":"0.0-3.0-4.0","responseType":"finish","participantID":"0u6rq2pxs4qu2qmhe4c32em4soo0e9ak","conditionNumber":0},{"rt":2821,"responses":"{\"Q0\":4}","trial_type":"survey-likert","trial_index":8,"time_elapsed":71528,"internal_node_id":"0.0-3.0-5.0","responseType":"finish","participantID":"0u6rq2pxs4qu2qmhe4c32em4soo0e9ak","conditionNumber":0},{"rt":5893,"responses":"{\"Q0\":5}","trial_type":"survey-likert","trial_index":9,"time_elapsed":77423,"internal_node_id":"0.0-3.0-6.0","responseType":"finish","participantID":"0u6rq2pxs4qu2qmhe4c32em4soo0e9ak","conditionNumber":0},{"rt":1955,"stimulus":"\u003cblockquote\u003e\n  \u003cp\u003eNow the next anagram will be shown to you. \u003cbr\u003e\u003cbr\u003e Press 'v' to view the next anagram.\u003c/p\u003e\n\u003c/blockquote\u003e","key_press":86,"trial_type":"html-keyboard-response","trial_index":10,"time_elapsed":79381,"internal_node_id":"0.0-3.0-7.0","responseType":"finish","participantID":"0u6rq2pxs4qu2qmhe4c32em4soo0e9ak","conditionNumber":0},{"rt":null,"stimulus":"\u003cblockquote\u003e\n  \u003ch1 id=\"khaomcm\"\u003eKHAOMCM\u003c/h1\u003e\n  \u003cp\u003e\u003cbr\u003e\u003c/p\u003e\n\u003c/blockquote\u003e","key_press":null,"trial_type":"html-keyboard-response","trial_index":11,"time_elapsed":90382,"internal_node_id":"0.0-3.0-8.0","responseType":"finish","participantID":"0u6rq2pxs4qu2qmhe4c32em4soo0e9ak","conditionNumber":0},{"rt":2839,"responses":"{\"Q0\":5}","trial_type":"survey-likert","trial_index":12,"time_elapsed":93223,"internal_node_id":"0.0-3.0-9.0","responseType":"finish","participantID":"0u6rq2pxs4qu2qmhe4c32em4soo0e9ak","conditionNumber":0},{"rt":2786,"responses":"{\"Q0\":2}","trial_type":"survey-likert","trial_index":13,"time_elapsed":96012,"internal_node_id":"0.0-3.0-10.0","responseType":"finish","participantID":"0u6rq2pxs4qu2qmhe4c32em4soo0e9ak","conditionNumber":0},{"rt":1992,"stimulus":"\u003cblockquote\u003e\n  \u003cp\u003eNow the next anagram will be shown to you. \u003cbr\u003e\u003cbr\u003e Press 'v' to view the next anagram.\u003c/p\u003e\n\u003c/blockquote\u003e","key_press":86,"trial_type":"html-keyboard-response","trial_index":14,"time_elapsed":98005,"internal_node_id":"0.0-3.0-11.0","responseType":"finish","participantID":"0u6rq2pxs4qu2qmhe4c32em4soo0e9ak","conditionNumber":0},{"rt":null,"stimulus":"\u003cblockquote\u003e\n  \u003ch1 id=\"dalrbeu\"\u003eDALRBEU\u003c/h1\u003e\n  \u003cp\u003e\u003cbr\u003e\u003c/p\u003e\n\u003c/blockquote\u003e","key_press":null,"trial_type":"html-keyboard-response","trial_index":15,"time_elapsed":109004,"internal_node_id":"0.0-3.0-12.0","responseType":"finish","participantID":"0u6rq2pxs4qu2qmhe4c32em4soo0e9ak","conditionNumber":0},{"rt":2498,"responses":"{\"Q0\":1}","trial_type":"survey-likert","trial_index":16,"time_elapsed":111503,"internal_node_id":"0.0-3.0-13.0","responseType":"finish","participantID":"0u6rq2pxs4qu2qmhe4c32em4soo0e9ak","conditionNumber":0},{"rt":1605,"responses":"{\"Q0\":0}","trial_type":"survey-likert","trial_index":17,"time_elapsed":113110,"internal_node_id":"0.0-3.0-14.0","responseType":"finish","participantID":"0u6rq2pxs4qu2qmhe4c32em4soo0e9ak","conditionNumber":0},{"rt":1922,"stimulus":"\u003cblockquote\u003e\n  \u003cp\u003eNow the next anagram will be shown to you. \u003cbr\u003e\u003cbr\u003e Press 'v' to view the next anagram.\u003c/p\u003e\n\u003c/blockquote\u003e","key_press":86,"trial_type":"html-keyboard-response","trial_index":18,"time_elapsed":115035,"internal_node_id":"0.0-3.0-15.0","responseType":"finish","participantID":"0u6rq2pxs4qu2qmhe4c32em4soo0e9ak","conditionNumber":0},{"rt":null,"stimulus":"\u003cblockquote\u003e\n  \u003ch1 id=\"dleta\"\u003eDLETA\u003c/h1\u003e\n  \u003cp\u003e\u003cbr\u003e\u003c/p\u003e\n\u003c/blockquote\u003e","key_press":null,"trial_type":"html-keyboard-response","trial_index":19,"time_elapsed":126038,"internal_node_id":"0.0-3.0-16.0","responseType":"finish","participantID":"0u6rq2pxs4qu2qmhe4c32em4soo0e9ak","conditionNumber":0},{"rt":2922,"responses":"{\"Q0\":5}","trial_type":"survey-likert","trial_index":20,"time_elapsed":128963,"internal_node_id":"0.0-4.0-0.0","responseType":"finish","participantID":"0u6rq2pxs4qu2qmhe4c32em4soo0e9ak","conditionNumber":0},{"rt":3333,"responses":"{\"Q0\":3}","trial_type":"survey-likert","trial_index":21,"time_elapsed":132298,"internal_node_id":"0.0-4.0-0.1","responseType":"finish","participantID":"0u6rq2pxs4qu2qmhe4c32em4soo0e9ak","conditionNumber":0}],"__v":0}
{"_id":{"$oid":"5ccf25588e69700004088190"},"data":[{"rt":7914,"responses":"{\"Q0\":\" I consent to participate\"}","trial_type":"survey-multi-choice","trial_index":0,"time_elapsed":7921,"internal_node_id":"0.0-0.0","responseType":"finish","participantID":"4zlbr3bz34ejfod0r254t5dm3durgqu8","conditionNumber":1},{"trial_type":"call-function","trial_index":1,"time_elapsed":7927,"internal_node_id":"0.0-1.0","responseType":"finish","participantID":"4zlbr3bz34ejfod0r254t5dm3durgqu8","conditionNumber":1},{"view_history":"[{\"page_index\":0,\"viewing_time\":10417},{\"page_index\":1,\"viewing_time\":4852},{\"page_index\":2,\"viewing_time\":3928}]","rt":19197,"trial_type":"instructions","trial_index":2,"time_elapsed":27126,"internal_node_id":"0.0-2.0","responseType":"finish","participantID":"4zlbr3bz34ejfod0r254t5dm3durgqu8","conditionNumber":1},{"rt":null,"stimulus":"\u003cblockquote\u003e\n  \u003ch1 id=\"srot\"\u003eSROT\u003c/h1\u003e\n  \u003cp\u003e\u003cbr\u003e\u003c/p\u003e\n\u003c/blockquote\u003e","key_press":null,"trial_type":"html-keyboard-response","trial_index":3,"time_elapsed":38132,"internal_node_id":"0.0-3.0-0.0","responseType":"finish","participantID":"4zlbr3bz34ejfod0r254t5dm3durgqu8","conditionNumber":1},{"rt":5587,"responses":"{\"Q0\":6}","trial_type":"survey-likert","trial_index":4,"time_elapsed":43722,"internal_node_id":"0.0-3.0-1.0","responseType":"finish","participantID":"4zlbr3bz34ejfod0r254t5dm3durgqu8","conditionNumber":1},{"rt":8267,"responses":"{\"Q0\":5}","trial_type":"survey-likert","trial_index":5,"time_elapsed":51991,"internal_node_id":"0.0-3.0-2.0","responseType":"finish","participantID":"4zlbr3bz34ejfod0r254t5dm3durgqu8","conditionNumber":1},{"rt":2022,"stimulus":"\u003cblockquote\u003e\n  \u003cp\u003eNow the next anagram will be shown to you. \u003cbr\u003e\u003cbr\u003e Press 'v' to view the next anagram.\u003c/p\u003e\n\u003c/blockquote\u003e","key_press":86,"trial_type":"html-keyboard-response","trial_index":6,"time_elapsed":54014,"internal_node_id":"0.0-3.0-3.0","responseType":"finish","participantID":"4zlbr3bz34ejfod0r254t5dm3durgqu8","conditionNumber":1},{"rt":null,"stimulus":"\u003cblockquote\u003e\n  \u003ch1 id=\"bluk\"\u003eBLUK\u003c/h1\u003e\n  \u003cp\u003e\u003cbr\u003e\u003c/p\u003e\n\u003c/blockquote\u003e","key_press":null,"trial_type":"html-keyboard-response","trial_index":7,"time_elapsed":65020,"internal_node_id":"0.0-3.0-4.0","responseType":"finish","participantID":"4zlbr3bz34ejfod0r254t5dm3durgqu8","conditionNumber":1},{"rt":4835,"responses":"{\"Q0\":5}","trial_type":"survey-likert","trial_index":8,"time_elapsed":69856,"internal_node_id":"0.0-3.0-5.0","responseType":"finish","participantID":"4zlbr3bz34ejfod0r254t5dm3durgqu8","conditionNumber":1},{"rt":4719,"responses":"{\"Q0\":4}","trial_type":"survey-likert","trial_index":9,"time_elapsed":74577,"internal_node_id":"0.0-3.0-6.0","responseType":"finish","participantID":"4zlbr3bz34ejfod0r254t5dm3durgqu8","conditionNumber":1},{"rt":1446,"stimulus":"\u003cblockquote\u003e\n  \u003cp\u003eNow the next anagram will be shown to you. \u003cbr\u003e\u003cbr\u003e Press 'v' to view the next anagram.\u003c/p\u003e\n\u003c/blockquote\u003e","key_press":86,"trial_type":"html-keyboard-response","trial_index":10,"time_elapsed":76024,"internal_node_id":"0.0-3.0-7.0","responseType":"finish","participantID":"4zlbr3bz34ejfod0r254t5dm3durgqu8","conditionNumber":1},{"rt":null,"stimulus":"\u003cblockquote\u003e\n  \u003ch1 id=\"pitn\"\u003ePITN\u003c/h1\u003e\n  \u003cp\u003e\u003cbr\u003e\u003c/p\u003e\n\u003c/blockquote\u003e","key_press":null,"trial_type":"html-keyboard-response","trial_index":11,"time_elapsed":87031,"internal_node_id":"0.0-3.0-8.0","responseType":"finish","participantID":"4zlbr3bz34ejfod0r254t5dm3durgqu8","conditionNumber":1},{"rt":3392,"responses":"{\"Q0\":5}","trial_type":"survey-likert","trial_index":12,"time_elapsed":90424,"internal_node_id":"0.0-3.0-9.0","responseType":"finish","participantID":"4zlbr3bz34ejfod0r254t5dm3durgqu8","conditionNumber":1},{"rt":3083,"responses":"{\"Q0\":5}","trial_type":"survey-likert","trial_index":13,"time_elapsed":93509,"internal_node_id":"0.0-3.0-10.0","responseType":"finish","participantID":"4zlbr3bz34ejfod0r254t5dm3durgqu8","conditionNumber":1},{"rt":1326,"stimulus":"\u003cblockquote\u003e\n  \u003cp\u003eNow the next anagram will be shown to you. \u003cbr\u003e\u003cbr\u003e Press 'v' to view the next anagram.\u003c/p\u003e\n\u003c/blockquote\u003e","key_press":86,"trial_type":"html-keyboard-response","trial_index":14,"time_elapsed":94837,"internal_node_id":"0.0-3.0-11.0","responseType":"finish","participantID":"4zlbr3bz34ejfod0r254t5dm3durgqu8","conditionNumber":1},{"rt":null,"stimulus":"\u003cblockquote\u003e\n  \u003ch1 id=\"orod\"\u003eOROD\u003c/h1\u003e\n  \u003cp\u003e\u003cbr\u003e\u003c/p\u003e\n\u003c/blockquote\u003e","key_press":null,"trial_type":"html-keyboard-response","trial_index":15,"time_elapsed":105842,"internal_node_id":"0.0-3.0-12.0","responseType":"finish","participantID":"4zlbr3bz34ejfod0r254t5dm3durgqu8","conditionNumber":1},{"rt":4934,"responses":"{\"Q0\":4}","trial_type":"survey-likert","trial_index":16,"time_elapsed":110778,"internal_node_id":"0.0-3.0-13.0","responseType":"finish","participantID":"4zlbr3bz34ejfod0r254t5dm3durgqu8","conditionNumber":1},{"rt":3121,"responses":"{\"Q0\":4}","trial_type":"survey-likert","trial_index":17,"time_elapsed":113903,"internal_node_id":"0.0-3.0-14.0","responseType":"finish","participantID":"4zlbr3bz34ejfod0r254t5dm3durgqu8","conditionNumber":1},{"rt":1174,"stimulus":"\u003cblockquote\u003e\n  \u003cp\u003eNow the next anagram will be shown to you. \u003cbr\u003e\u003cbr\u003e Press 'v' to view the next anagram.\u003c/p\u003e\n\u003c/blockquote\u003e","key_press":86,"trial_type":"html-keyboard-response","trial_index":18,"time_elapsed":115078,"internal_node_id":"0.0-3.0-15.0","responseType":"finish","participantID":"4zlbr3bz34ejfod0r254t5dm3durgqu8","conditionNumber":1},{"rt":null,"stimulus":"\u003cblockquote\u003e\n  \u003ch1 id=\"dleta\"\u003eDLETA\u003c/h1\u003e\n  \u003cp\u003e\u003cbr\u003e\u003c/p\u003e\n\u003c/blockquote\u003e","key_press":null,"trial_type":"html-keyboard-response","trial_index":19,"time_elapsed":126082,"internal_node_id":"0.0-3.0-16.0","responseType":"finish","participantID":"4zlbr3bz34ejfod0r254t5dm3durgqu8","conditionNumber":1},{"rt":2737,"responses":"{\"Q0\":6}","trial_type":"survey-likert","trial_index":20,"time_elapsed":128822,"internal_node_id":"0.0-4.0-0.0","responseType":"finish","participantID":"4zlbr3bz34ejfod0r254t5dm3durgqu8","conditionNumber":1},{"rt":3382,"responses":"{\"Q0\":5}","trial_type":"survey-likert","trial_index":21,"time_elapsed":132207,"internal_node_id":"0.0-4.0-0.1","responseType":"finish","participantID":"4zlbr3bz34ejfod0r254t5dm3durgqu8","conditionNumber":1}],"__v":0}
{"_id":{"$oid":"5ccf25588e69700004088191"},"data":[{"rt":5940,"responses":"{\"Q0\":\" I consent to participate\"}","trial_type":"survey-multi-choice","trial_index":0,"time_elapsed":5948,"internal_node_id":"0.0-0.0","responseType":"finish","participantID":"1f62yk50da7kl140nzlm1hc7z7mcn7mz","conditionNumber":0},{"trial_type":"call-function","trial_index":1,"time_elapsed":5953,"internal_node_id":"0.0-1.0","responseType":"finish","participantID":"1f62yk50da7kl140nzlm1hc7z7mcn7mz","conditionNumber":0},{"view_history":"[{\"page_index\":0,\"viewing_time\":2338},{\"page_index\":1,\"viewing_time\":4588},{\"page_index\":2,\"viewing_time\":3236}]","rt":10162,"trial_type":"instructions","trial_index":2,"time_elapsed":16115,"internal_node_id":"0.0-2.0","responseType":"finish","participantID":"1f62yk50da7kl140nzlm1hc7z7mcn7mz","conditionNumber":0},{"rt":null,"stimulus":"\u003cblockquote\u003e\n  \u003ch1 id=\"iorcnag\"\u003eIORCNAG\u003c/h1\u003e\n  \u003cp\u003e\u003cbr\u003e\u003c/p\u003e\n\u003c/blockquote\u003e","key_press":null,"trial_type":"html-keyboard-response","trial_index":3,"time_elapsed":27118,"internal_node_id":"0.0-3.0-0.0","responseType":"finish","participantID":"1f62yk50da7kl140nzlm1hc7z7mcn7mz","conditionNumber":0},{"rt":3688,"responses":"{\"Q0\":2}","trial_type":"survey-likert","trial_index":4,"time_elapsed":30808,"internal_node_id":"0.0-3.0-1.0","responseType":"finish","participantID":"1f62yk50da7kl140nzlm1hc7z7mcn7mz","conditionNumber":0},{"rt":3936,"responses":"{\"Q0\":0}","trial_type":"survey-likert","trial_index":5,"time_elapsed":34747,"internal_node_id":"0.0-3.0-2.0","responseType":"finish","participantID":"1f62yk50da7kl140nzlm1hc7z7mcn7mz","conditionNumber":0},{"rt":1606,"stimulus":"\u003cblockquote\u003e\n  \u003cp\u003eNow the next anagram will be shown to you. \u003cbr\u003e\u003cbr\u003e Press 'v' to view the next anagram.\u003c/p\u003e\n\u003c/blockquote\u003e","key_press":86,"trial_type":"html-keyboard-response","trial_index":6,"time_elapsed":36354,"internal_node_id":"0.0-3.0-3.0","responseType":"finish","participantID":"1f62yk50da7kl140nzlm1hc7z7mcn7mz","conditionNumber":0},{"rt":null,"stimulus":"\u003cblockquote\u003e\n  \u003ch1 id=\"hnatuyg\"\u003eHNATUYG\u003c/h1\u003e\n  \u003cp\u003e\u003cbr\u003e\u003c/p\u003e\n\u003c/blockquote\u003e","key_press":null,"trial_type":"html-keyboard-response","trial_index":7,"time_elapsed":47355,"internal_node_id":"0.0-3.0-4.0","responseType":"finish","participantID":"1f62yk50da7kl140nzlm1hc7z7mcn7mz","conditionNumber":0},{"rt":2635,"responses":"{\"Q0\":3}","trial_type":"survey-likert","trial_index":8,"time_elapsed":49991,"internal_node_id":"0.0-3.0-5.0","responseType":"finish","participantID":"1f62yk50da7kl140nzlm1hc7z7mcn7mz","conditionNumber":0},{"rt":2991,"responses":"{\"Q0\":0}","trial_type":"survey-likert","trial_index":9,"time_elapsed":52983,"internal_node_id":"0.0-3.0-6.0","responseType":"finish","participantID":"1f62yk50da7kl140nzlm1hc7z7mcn7mz","conditionNumber":0},{"rt":897,"stimulus":"\u003cblockquote\u003e\n  \u003cp\u003eNow the next anagram will be shown to you. \u003cbr\u003e\u003cbr\u003e Press 'v' to view the next anagram.\u003c/p\u003e\n\u003c/blockquote\u003e","key_press":86,"trial_type":"html-keyboard-response","trial_index":10,"time_elapsed":53883,"internal_node_id":"0.0-3.0-7.0","responseType":"finish","participantID":"1f62yk50da7kl140nzlm1hc7z7mcn7mz","conditionNumber":0},{"rt":null,"stimulus":"\u003cblockquote\u003e\n  \u003ch1 id=\"khaomcm\"\u003eKHAOMCM\u003c/h1\u003e\n  \u003cp\u003e\u003cbr\u003e\u003c/p\u003e\n\u003c/blockquote\u003e","key_press":null,"trial_type":"html-keyboard-response","trial_index":11,"time_elapsed":64913,"internal_node_id":"0.0-3.0-8.0","responseType":"finish","participantID":"1f62yk50da7kl140nzlm1hc7z7mcn7mz","conditionNumber":0},{"rt":2317,"responses":"{\"Q0\":3}","trial_type":"survey-likert","trial_index":12,"time_elapsed":67231,"internal_node_id":"0.0-3.0-9.0","responseType":"finish","participantID":"1f62yk50da7kl140nzlm1hc7z7mcn7mz","conditionNumber":0},{"rt":1895,"responses":"{\"Q0\":0}","trial_type":"survey-likert","trial_index":13,"time_elapsed":69127,"internal_node_id":"0.0-3.0-10.0","responseType":"finish","participantID":"1f62yk50da7kl140nzlm1hc7z7mcn7mz","conditionNumber":0},{"rt":1298,"stimulus":"\u003cblockquote\u003e\n  \u003cp\u003eNow the next anagram will be shown to you. \u003cbr\u003e\u003cbr\u003e Press 'v' to view the next anagram.\u003c/p\u003e\n\u003c/blockquote\u003e","key_press":86,"trial_type":"html-keyboard-response","trial_index":14,"time_elapsed":70427,"internal_node_id":"0.0-3.0-11.0","responseType":"finish","participantID":"1f62yk50da7kl140nzlm1hc7z7mcn7mz","conditionNumber":0},{"rt":null,"stimulus":"\u003cblockquote\u003e\n  \u003ch1 id=\"dalrbeu\"\u003eDALRBEU\u003c/h1\u003e\n  \u003cp\u003e\u003cbr\u003e\u003c/p\u003e\n\u003c/blockquote\u003e","key_press":null,"trial_type":"html-keyboard-response","trial_index":15,"time_elapsed":81429,"internal_node_id":"0.0-3.0-12.0","responseType":"finish","participantID":"1f62yk50da7kl140nzlm1hc7z7mcn7mz","conditionNumber":0},{"rt":2425,"responses":"{\"Q0\":3}","trial_type":"survey-likert","trial_index":16,"time_elapsed":83856,"internal_node_id":"0.0-3.0-13.0","responseType":"finish","participantID":"1f62yk50da7kl140nzlm1hc7z7mcn7mz","conditionNumber":0},{"rt":2182,"responses":"{\"Q0\":0}","trial_type":"survey-likert","trial_index":17,"time_elapsed":86039,"internal_node_id":"0.0-3.0-14.0","responseType":"finish","participantID":"1f62yk50da7kl140nzlm1hc7z7mcn7mz","conditionNumber":0},{"rt":1288,"stimulus":"\u003cblockquote\u003e\n  \u003cp\u003eNow the next anagram will be shown to you. \u003cbr\u003e\u003cbr\u003e Press 'v' to view the next anagram.\u003c/p\u003e\n\u003c/blockquote\u003e","key_press":86,"trial_type":"html-keyboard-response","trial_index":18,"time_elapsed":87330,"internal_node_id":"0.0-3.0-15.0","responseType":"finish","participantID":"1f62yk50da7kl140nzlm1hc7z7mcn7mz","conditionNumber":0},{"rt":null,"stimulus":"\u003cblockquote\u003e\n  \u003ch1 id=\"dleta\"\u003eDLETA\u003c/h1\u003e\n  \u003cp\u003e\u003cbr\u003e\u003c/p\u003e\n\u003c/blockquote\u003e","key_press":null,"trial_type":"html-keyboard-response","trial_index":19,"time_elapsed":98332,"internal_node_id":"0.0-3.0-16.0","responseType":"finish","participantID":"1f62yk50da7kl140nzlm1hc7z7mcn7mz","conditionNumber":0},{"rt":1833,"responses":"{\"Q0\":4}","trial_type":"survey-likert","trial_index":20,"time_elapsed":100167,"internal_node_id":"0.0-4.0-0.0","responseType":"finish","participantID":"1f62yk50da7kl140nzlm1hc7z7mcn7mz","conditionNumber":0},{"rt":2935,"responses":"{\"Q0\":4}","trial_type":"survey-likert","trial_index":21,"time_elapsed":103103,"internal_node_id":"0.0-4.0-0.1","responseType":"finish","participantID":"1f62yk50da7kl140nzlm1hc7z7mcn7mz","conditionNumber":0}],"__v":0}
{"_id":{"$oid":"5ccf255f8e69700004088192"},"data":{"responseType":"start","participantID":"c3s8go3f21mmskybvq1orcps81515q75","conditionNumber":1},"__v":0}
{"_id":{"$oid":"5ccf25618e69700004088193"},"data":[{"rt":11015,"responses":"{\"Q0\":\" I consent to participate\"}","trial_type":"survey-multi-choice","trial_index":0,"time_elapsed":11029,"internal_node_id":"0.0-0.0","responseType":"finish","participantID":"d7gx6112dmebz94tgk555rx3gjkjhfdj","conditionNumber":1},{"trial_type":"call-function","trial_index":1,"time_elapsed":11043,"internal_node_id":"0.0-1.0","responseType":"finish","participantID":"d7gx6112dmebz94tgk555rx3gjkjhfdj","conditionNumber":1},{"view_history":"[{\"page_index\":0,\"viewing_time\":5540},{\"page_index\":1,\"viewing_time\":16519},{\"page_index\":2,\"viewing_time\":6506}]","rt":28565,"trial_type":"instructions","trial_index":2,"time_elapsed":39609,"internal_node_id":"0.0-2.0","responseType":"finish","participantID":"d7gx6112dmebz94tgk555rx3gjkjhfdj","conditionNumber":1},{"rt":null,"stimulus":"\u003cblockquote\u003e\n  \u003ch1 id=\"srot\"\u003eSROT\u003c/h1\u003e\n  \u003cp\u003e\u003cbr\u003e\u003c/p\u003e\n\u003c/blockquote\u003e","key_press":null,"trial_type":"html-keyboard-response","trial_index":3,"time_elapsed":50635,"internal_node_id":"0.0-3.0-0.0","responseType":"finish","participantID":"d7gx6112dmebz94tgk555rx3gjkjhfdj","conditionNumber":1},{"rt":8971,"responses":"{\"Q0\":5}","trial_type":"survey-likert","trial_index":4,"time_elapsed":59613,"internal_node_id":"0.0-3.0-1.0","responseType":"finish","participantID":"d7gx6112dmebz94tgk555rx3gjkjhfdj","conditionNumber":1},{"rt":11116,"responses":"{\"Q0\":3}","trial_type":"survey-likert","trial_index":5,"time_elapsed":70734,"internal_node_id":"0.0-3.0-2.0","responseType":"finish","participantID":"d7gx6112dmebz94tgk555rx3gjkjhfdj","conditionNumber":1},{"rt":4261,"stimulus":"\u003cblockquote\u003e\n  \u003cp\u003eNow the next anagram will be shown to you. \u003cbr\u003e\u003cbr\u003e Press 'v' to view the next anagram.\u003c/p\u003e\n\u003c/blockquote\u003e","key_press":86,"trial_type":"html-keyboard-response","trial_index":6,"time_elapsed":75000,"internal_node_id":"0.0-3.0-3.0","responseType":"finish","participantID":"d7gx6112dmebz94tgk555rx3gjkjhfdj","conditionNumber":1},{"rt":null,"stimulus":"\u003cblockquote\u003e\n  \u003ch1 id=\"bluk\"\u003eBLUK\u003c/h1\u003e\n  \u003cp\u003e\u003cbr\u003e\u003c/p\u003e\n\u003c/blockquote\u003e","key_press":null,"trial_type":"html-keyboard-response","trial_index":7,"time_elapsed":86007,"internal_node_id":"0.0-3.0-4.0","responseType":"finish","participantID":"d7gx6112dmebz94tgk555rx3gjkjhfdj","conditionNumber":1},{"rt":5411,"responses":"{\"Q0\":3}","trial_type":"survey-likert","trial_index":8,"time_elapsed":91423,"internal_node_id":"0.0-3.0-5.0","responseType":"finish","participantID":"d7gx6112dmebz94tgk555rx3gjkjhfdj","conditionNumber":1},{"rt":5160,"responses":"{\"Q0\":4}","trial_type":"survey-likert","trial_index":9,"time_elapsed":96586,"internal_node_id":"0.0-3.0-6.0","responseType":"finish","participantID":"d7gx6112dmebz94tgk555rx3gjkjhfdj","conditionNumber":1},{"rt":1711,"stimulus":"\u003cblockquote\u003e\n  \u003cp\u003eNow the next anagram will be shown to you. \u003cbr\u003e\u003cbr\u003e Press 'v' to view the next anagram.\u003c/p\u003e\n\u003c/blockquote\u003e","key_press":86,"trial_type":"html-keyboard-response","trial_index":10,"time_elapsed":98303,"internal_node_id":"0.0-3.0-7.0","responseType":"finish","participantID":"d7gx6112dmebz94tgk555rx3gjkjhfdj","conditionNumber":1},{"rt":null,"stimulus":"\u003cblockquote\u003e\n  \u003ch1 id=\"pitn\"\u003ePITN\u003c/h1\u003e\n  \u003cp\u003e\u003cbr\u003e\u003c/p\u003e\n\u003c/blockquote\u003e","key_press":null,"trial_type":"html-keyboard-response","trial_index":11,"time_elapsed":109332,"internal_node_id":"0.0-3.0-8.0","responseType":"finish","participantID":"d7gx6112dmebz94tgk555rx3gjkjhfdj","conditionNumber":1},{"rt":3933,"responses":"{\"Q0\":5}","trial_type":"survey-likert","trial_index":12,"time_elapsed":113270,"internal_node_id":"0.0-3.0-9.0","responseType":"finish","participantID":"d7gx6112dmebz94tgk555rx3gjkjhfdj","conditionNumber":1},{"rt":11556,"responses":"{\"Q0\":2}","trial_type":"survey-likert","trial_index":13,"time_elapsed":124830,"internal_node_id":"0.0-3.0-10.0","responseType":"finish","participantID":"d7gx6112dmebz94tgk555rx3gjkjhfdj","conditionNumber":1},{"rt":1299,"stimulus":"\u003cblockquote\u003e\n  \u003cp\u003eNow the next anagram will be shown to you. \u003cbr\u003e\u003cbr\u003e Press 'v' to view the next anagram.\u003c/p\u003e\n\u003c/blockquote\u003e","key_press":86,"trial_type":"html-keyboard-response","trial_index":14,"time_elapsed":126133,"internal_node_id":"0.0-3.0-11.0","responseType":"finish","participantID":"d7gx6112dmebz94tgk555rx3gjkjhfdj","conditionNumber":1},{"rt":null,"stimulus":"\u003cblockquote\u003e\n  \u003ch1 id=\"orod\"\u003eOROD\u003c/h1\u003e\n  \u003cp\u003e\u003cbr\u003e\u003c/p\u003e\n\u003c/blockquote\u003e","key_press":null,"trial_type":"html-keyboard-response","trial_index":15,"time_elapsed":137151,"internal_node_id":"0.0-3.0-12.0","responseType":"finish","participantID":"d7gx6112dmebz94tgk555rx3gjkjhfdj","conditionNumber":1},{"rt":6454,"responses":"{\"Q0\":5}","trial_type":"survey-likert","trial_index":16,"time_elapsed":143609,"internal_node_id":"0.0-3.0-13.0","responseType":"finish","participantID":"d7gx6112dmebz94tgk555rx3gjkjhfdj","conditionNumber":1},{"rt":11033,"responses":"{\"Q0\":1}","trial_type":"survey-likert","trial_index":17,"time_elapsed":154648,"internal_node_id":"0.0-3.0-14.0","responseType":"finish","participantID":"d7gx6112dmebz94tgk555rx3gjkjhfdj","conditionNumber":1},{"rt":2842,"stimulus":"\u003cblockquote\u003e\n  \u003cp\u003eNow the next anagram will be shown to you. \u003cbr\u003e\u003cbr\u003e Press 'v' to view the next anagram.\u003c/p\u003e\n\u003c/blockquote\u003e","key_press":86,"trial_type":"html-keyboard-response","trial_index":18,"time_elapsed":157495,"internal_node_id":"0.0-3.0-15.0","responseType":"finish","participantID":"d7gx6112dmebz94tgk555rx3gjkjhfdj","conditionNumber":1},{"rt":null,"stimulus":"\u003cblockquote\u003e\n  \u003ch1 id=\"dleta\"\u003eDLETA\u003c/h1\u003e\n  \u003cp\u003e\u003cbr\u003e\u003c/p\u003e\n\u003c/blockquote\u003e","key_press":null,"trial_type":"html-keyboard-response","trial_index":19,"time_elapsed":168522,"internal_node_id":"0.0-3.0-16.0","responseType":"finish","participantID":"d7gx6112dmebz94tgk555rx3gjkjhfdj","conditionNumber":1},{"rt":3150,"responses":"{\"Q0\":4}","trial_type":"survey-likert","trial_index":20,"time_elapsed":171681,"internal_node_id":"0.0-4.0-0.0","responseType":"finish","participantID":"d7gx6112dmebz94tgk555rx3gjkjhfdj","conditionNumber":1},{"rt":3950,"responses":"{\"Q0\":3}","trial_type":"survey-likert","trial_index":21,"time_elapsed":175635,"internal_node_id":"0.0-4.0-0.1","responseType":"finish","participantID":"d7gx6112dmebz94tgk555rx3gjkjhfdj","conditionNumber":1}],"__v":0}
{"_id":{"$oid":"5ccf25638e69700004088194"},"data":[{"rt":3422,"responses":"{\"Q0\":\" I consent to participate\"}","trial_type":"survey-multi-choice","trial_index":0,"time_elapsed":3425,"internal_node_id":"0.0-0.0","responseType":"finish","participantID":"cg1uy45ebydwhv6tj3xccu6oasenzrsz","conditionNumber":0},{"trial_type":"call-function","trial_index":1,"time_elapsed":3429,"internal_node_id":"0.0-1.0","responseType":"finish","participantID":"cg1uy45ebydwhv6tj3xccu6oasenzrsz","conditionNumber":0},{"view_history":"[{\"page_index\":0,\"viewing_time\":4285},{\"page_index\":1,\"viewing_time\":6266},{\"page_index\":2,\"viewing_time\":1550},{\"page_index\":1,\"viewing_time\":2626},{\"page_index\":2,\"viewing_time\":4302}]","rt":19030,"trial_type":"instructions","trial_index":2,"time_elapsed":22459,"internal_node_id":"0.0-2.0","responseType":"finish","participantID":"cg1uy45ebydwhv6tj3xccu6oasenzrsz","conditionNumber":0},{"rt":null,"stimulus":"\u003cblockquote\u003e\n  \u003ch1 id=\"iorcnag\"\u003eIORCNAG\u003c/h1\u003e\n  \u003cp\u003e\u003cbr\u003e\u003c/p\u003e\n\u003c/blockquote\u003e","key_press":null,"trial_type":"html-keyboard-response","trial_index":3,"time_elapsed":33460,"internal_node_id":"0.0-3.0-0.0","responseType":"finish","participantID":"cg1uy45ebydwhv6tj3xccu6oasenzrsz","conditionNumber":0},{"rt":5810,"responses":"{\"Q0\":2}","trial_type":"survey-likert","trial_index":4,"time_elapsed":39271,"internal_node_id":"0.0-3.0-1.0","responseType":"finish","participantID":"cg1uy45ebydwhv6tj3xccu6oasenzrsz","conditionNumber":0},{"rt":6967,"responses":"{\"Q0\":0}","trial_type":"survey-likert","trial_index":5,"time_elapsed":46239,"internal_node_id":"0.0-3.0-2.0","responseType":"finish","participantID":"cg1uy45ebydwhv6tj3xccu6oasenzrsz","conditionNumber":0},{"rt":2208,"stimulus":"\u003cblockquote\u003e\n  \u003cp\u003eNow the next anagram will be shown to you. \u003cbr\u003e\u003cbr\u003e Press 'v' to view the next anagram.\u003c/p\u003e\n\u003c/blockquote\u003e","key_press":86,"trial_type":"html-keyboard-response","trial_index":6,"time_elapsed":48448,"internal_node_id":"0.0-3.0-3.0","responseType":"finish","participantID":"cg1uy45ebydwhv6tj3xccu6oasenzrsz","conditionNumber":0},{"rt":null,"stimulus":"\u003cblockquote\u003e\n  \u003ch1 id=\"hnatuyg\"\u003eHNATUYG\u003c/h1\u003e\n  \u003cp\u003e\u003cbr\u003e\u003c/p\u003e\n\u003c/blockquote\u003e","key_press":null,"trial_type":"html-keyboard-response","trial_index":7,"time_elapsed":59451,"internal_node_id":"0.0-3.0-4.0","responseType":"finish","participantID":"cg1uy45ebydwhv6tj3xccu6oasenzrsz","conditionNumber":0},{"rt":2734,"responses":"{\"Q0\":1}","trial_type":"survey-likert","trial_index":8,"time_elapsed":62185,"internal_node_id":"0.0-3.0-5.0","responseType":"finish","participantID":"cg1uy45ebydwhv6tj3xccu6oasenzrsz","conditionNumber":0},{"rt":1446,"responses":"{\"Q0\":0}","trial_type":"survey-likert","trial_index":9,"time_elapsed":63633,"internal_node_id":"0.0-3.0-6.0","responseType":"finish","participantID":"cg1uy45ebydwhv6tj3xccu6oasenzrsz","conditionNumber":0},{"rt":1746,"stimulus":"\u003cblockquote\u003e\n  \u003cp\u003eNow the next anagram will be shown to you. \u003cbr\u003e\u003cbr\u003e Press 'v' to view the next anagram.\u003c/p\u003e\n\u003c/blockquote\u003e","key_press":86,"trial_type":"html-keyboard-response","trial_index":10,"time_elapsed":65380,"internal_node_id":"0.0-3.0-7.0","responseType":"finish","participantID":"cg1uy45ebydwhv6tj3xccu6oasenzrsz","conditionNumber":0},{"rt":null,"stimulus":"\u003cblockquote\u003e\n  \u003ch1 id=\"khaomcm\"\u003eKHAOMCM\u003c/h1\u003e\n  \u003cp\u003e\u003cbr\u003e\u003c/p\u003e\n\u003c/blockquote\u003e","key_press":null,"trial_type":"html-keyboard-response","trial_index":11,"time_elapsed":76382,"internal_node_id":"0.0-3.0-8.0","responseType":"finish","participantID":"cg1uy45ebydwhv6tj3xccu6oasenzrsz","conditionNumber":0},{"rt":3601,"responses":"{\"Q0\":2}","trial_type":"survey-likert","trial_index":12,"time_elapsed":79983,"internal_node_id":"0.0-3.0-9.0","responseType":"finish","participantID":"cg1uy45ebydwhv6tj3xccu6oasenzrsz","conditionNumber":0},{"rt":3023,"responses":"{\"Q0\":0}","trial_type":"survey-likert","trial_index":13,"time_elapsed":83007,"internal_node_id":"0.0-3.0-10.0","responseType":"finish","participantID":"cg1uy45ebydwhv6tj3xccu6oasenzrsz","conditionNumber":0},{"rt":1660,"stimulus":"\u003cblockquote\u003e\n  \u003cp\u003eNow the next anagram will be shown to you. \u003cbr\u003e\u003cbr\u003e Press 'v' to view the next anagram.\u003c/p\u003e\n\u003c/blockquote\u003e","key_press":86,"trial_type":"html-keyboard-response","trial_index":14,"time_elapsed":84668,"internal_node_id":"0.0-3.0-11.0","responseType":"finish","participantID":"cg1uy45ebydwhv6tj3xccu6oasenzrsz","conditionNumber":0},{"rt":null,"stimulus":"\u003cblockquote\u003e\n  \u003ch1 id=\"dalrbeu\"\u003eDALRBEU\u003c/h1\u003e\n  \u003cp\u003e\u003cbr\u003e\u003c/p\u003e\n\u003c/blockquote\u003e","key_press":null,"trial_type":"html-keyboard-response","trial_index":15,"time_elapsed":95668,"internal_node_id":"0.0-3.0-12.0","responseType":"finish","participantID":"cg1uy45ebydwhv6tj3xccu6oasenzrsz","conditionNumber":0},{"rt":2030,"responses":"{\"Q0\":1}","trial_type":"survey-likert","trial_index":16,"time_elapsed":97699,"internal_node_id":"0.0-3.0-13.0","responseType":"finish","participantID":"cg1uy45ebydwhv6tj3xccu6oasenzrsz","conditionNumber":0},{"rt":1171,"responses":"{\"Q0\":0}","trial_type":"survey-likert","trial_index":17,"time_elapsed":98871,"internal_node_id":"0.0-3.0-14.0","responseType":"finish","participantID":"cg1uy45ebydwhv6tj3xccu6oasenzrsz","conditionNumber":0},{"rt":771,"stimulus":"\u003cblockquote\u003e\n  \u003cp\u003eNow the next anagram will be shown to you. \u003cbr\u003e\u003cbr\u003e Press 'v' to view the next anagram.\u003c/p\u003e\n\u003c/blockquote\u003e","key_press":86,"trial_type":"html-keyboard-response","trial_index":18,"time_elapsed":99644,"internal_node_id":"0.0-3.0-15.0","responseType":"finish","participantID":"cg1uy45ebydwhv6tj3xccu6oasenzrsz","conditionNumber":0},{"rt":null,"stimulus":"\u003cblockquote\u003e\n  \u003ch1 id=\"dleta\"\u003eDLETA\u003c/h1\u003e\n  \u003cp\u003e\u003cbr\u003e\u003c/p\u003e\n\u003c/blockquote\u003e","key_press":null,"trial_type":"html-keyboard-response","trial_index":19,"time_elapsed":111631,"internal_node_id":"0.0-3.0-16.0","responseType":"finish","participantID":"cg1uy45ebydwhv6tj3xccu6oasenzrsz","conditionNumber":0},{"rt":7760,"responses":"{\"Q0\":4}","trial_type":"survey-likert","trial_index":20,"time_elapsed":119393,"internal_node_id":"0.0-4.0-0.0","responseType":"finish","participantID":"cg1uy45ebydwhv6tj3xccu6oasenzrsz","conditionNumber":0},{"rt":6664,"responses":"{\"Q0\":3}","trial_type":"survey-likert","trial_index":21,"time_elapsed":126059,"internal_node_id":"0.0-4.0-0.1","responseType":"finish","participantID":"cg1uy45ebydwhv6tj3xccu6oasenzrsz","conditionNumber":0}],"__v":0}
{"_id":{"$oid":"5ccf256d8e69700004088195"},"data":[{"rt":4040,"responses":"{\"Q0\":\" I consent to participate\"}","trial_type":"survey-multi-choice","trial_index":0,"time_elapsed":4044,"internal_node_id":"0.0-0.0","responseType":"finish","participantID":"eqdftqnyk3aywcx3m8b3y0je8rzygeue","conditionNumber":1},{"trial_type":"call-function","trial_index":1,"time_elapsed":4047,"internal_node_id":"0.0-1.0","responseType":"finish","participantID":"eqdftqnyk3aywcx3m8b3y0je8rzygeue","conditionNumber":1},{"view_history":"[{\"page_index\":0,\"viewing_time\":2459},{\"page_index\":1,\"viewing_time\":3998},{\"page_index\":2,\"viewing_time\":3995}]","rt":10452,"trial_type":"instructions","trial_index":2,"time_elapsed":14499,"internal_node_id":"0.0-2.0","responseType":"finish","participantID":"eqdftqnyk3aywcx3m8b3y0je8rzygeue","conditionNumber":1},{"rt":null,"stimulus":"\u003cblockquote\u003e\n  \u003ch1 id=\"srot\"\u003eSROT\u003c/h1\u003e\n  \u003cp\u003e\u003cbr\u003e\u003c/p\u003e\n\u003c/blockquote\u003e","key_press":null,"trial_type":"html-keyboard-response","trial_index":3,"time_elapsed":25502,"internal_node_id":"0.0-3.0-0.0","responseType":"finish","participantID":"eqdftqnyk3aywcx3m8b3y0je8rzygeue","conditionNumber":1},{"rt":5010,"responses":"{\"Q0\":3}","trial_type":"survey-likert","trial_index":4,"time_elapsed":30514,"internal_node_id":"0.0-3.0-1.0","responseType":"finish","participantID":"eqdftqnyk3aywcx3m8b3y0je8rzygeue","conditionNumber":1},{"rt":5850,"responses":"{\"Q0\":4}","trial_type":"survey-likert","trial_index":5,"time_elapsed":36365,"internal_node_id":"0.0-3.0-2.0","responseType":"finish","participantID":"eqdftqnyk3aywcx3m8b3y0je8rzygeue","conditionNumber":1},{"rt":2661,"stimulus":"\u003cblockquote\u003e\n  \u003cp\u003eNow the next anagram will be shown to you. \u003cbr\u003e\u003cbr\u003e Press 'v' to view the next anagram.\u003c/p\u003e\n\u003c/blockquote\u003e","key_press":86,"trial_type":"html-keyboard-response","trial_index":6,"time_elapsed":39028,"internal_node_id":"0.0-3.0-3.0","responseType":"finish","participantID":"eqdftqnyk3aywcx3m8b3y0je8rzygeue","conditionNumber":1},{"rt":null,"stimulus":"\u003cblockquote\u003e\n  \u003ch1 id=\"bluk\"\u003eBLUK\u003c/h1\u003e\n  \u003cp\u003e\u003cbr\u003e\u003c/p\u003e\n\u003c/blockquote\u003e","key_press":null,"trial_type":"html-keyboard-response","trial_index":7,"time_elapsed":50031,"internal_node_id":"0.0-3.0-4.0","responseType":"finish","participantID":"eqdftqnyk3aywcx3m8b3y0je8rzygeue","conditionNumber":1},{"rt":8569,"responses":"{\"Q0\":3}","trial_type":"survey-likert","trial_index":8,"time_elapsed":58603,"internal_node_id":"0.0-3.0-5.0","responseType":"finish","participantID":"eqdftqnyk3aywcx3m8b3y0je8rzygeue","conditionNumber":1},{"rt":5458,"responses":"{\"Q0\":2}","trial_type":"survey-likert","trial_index":9,"time_elapsed":64062,"internal_node_id":"0.0-3.0-6.0","responseType":"finish","participantID":"eqdftqnyk3aywcx3m8b3y0je8rzygeue","conditionNumber":1},{"rt":2089,"stimulus":"\u003cblockquote\u003e\n  \u003cp\u003eNow the next anagram will be shown to you. \u003cbr\u003e\u003cbr\u003e Press 'v' to view the next anagram.\u003c/p\u003e\n\u003c/blockquote\u003e","key_press":86,"trial_type":"html-keyboard-response","trial_index":10,"time_elapsed":66152,"internal_node_id":"0.0-3.0-7.0","responseType":"finish","participantID":"eqdftqnyk3aywcx3m8b3y0je8rzygeue","conditionNumber":1},{"rt":null,"stimulus":"\u003cblockquote\u003e\n  \u003ch1 id=\"pitn\"\u003ePITN\u003c/h1\u003e\n  \u003cp\u003e\u003cbr\u003e\u003c/p\u003e\n\u003c/blockquote\u003e","key_press":null,"trial_type":"html-keyboard-response","trial_index":11,"time_elapsed":77155,"internal_node_id":"0.0-3.0-8.0","responseType":"finish","participantID":"eqdftqnyk3aywcx3m8b3y0je8rzygeue","conditionNumber":1},{"rt":2470,"responses":"{\"Q0\":3}","trial_type":"survey-likert","trial_index":12,"time_elapsed":79627,"internal_node_id":"0.0-3.0-9.0","responseType":"finish","participantID":"eqdftqnyk3aywcx3m8b3y0je8rzygeue","conditionNumber":1},{"rt":4039,"responses":"{\"Q0\":4}","trial_type":"survey-likert","trial_index":13,"time_elapsed":83667,"internal_node_id":"0.0-3.0-10.0","responseType":"finish","participantID":"eqdftqnyk3aywcx3m8b3y0je8rzygeue","conditionNumber":1},{"rt":1579,"stimulus":"\u003cblockquote\u003e\n  \u003cp\u003eNow the next anagram will be shown to you. \u003cbr\u003e\u003cbr\u003e Press 'v' to view the next anagram.\u003c/p\u003e\n\u003c/blockquote\u003e","key_press":86,"trial_type":"html-keyboard-response","trial_index":14,"time_elapsed":85248,"internal_node_id":"0.0-3.0-11.0","responseType":"finish","participantID":"eqdftqnyk3aywcx3m8b3y0je8rzygeue","conditionNumber":1},{"rt":null,"stimulus":"\u003cblockquote\u003e\n  \u003ch1 id=\"orod\"\u003eOROD\u003c/h1\u003e\n  \u003cp\u003e\u003cbr\u003e\u003c/p\u003e\n\u003c/blockquote\u003e","key_press":null,"trial_type":"html-keyboard-response","trial_index":15,"time_elapsed":96251,"internal_node_id":"0.0-3.0-12.0","responseType":"finish","participantID":"eqdftqnyk3aywcx3m8b3y0je8rzygeue","conditionNumber":1},{"rt":2992,"responses":"{\"Q0\":3}","trial_type":"survey-likert","trial_index":16,"time_elapsed":99246,"internal_node_id":"0.0-3.0-13.0","responseType":"finish","participantID":"eqdftqnyk3aywcx3m8b3y0je8rzygeue","conditionNumber":1},{"rt":2933,"responses":"{\"Q0\":3}","trial_type":"survey-likert","trial_index":17,"time_elapsed":102179,"internal_node_id":"0.0-3.0-14.0","responseType":"finish","participantID":"eqdftqnyk3aywcx3m8b3y0je8rzygeue","conditionNumber":1},{"rt":1770,"stimulus":"\u003cblockquote\u003e\n  \u003cp\u003eNow the next anagram will be shown to you. \u003cbr\u003e\u003cbr\u003e Press 'v' to view the next anagram.\u003c/p\u003e\n\u003c/blockquote\u003e","key_press":86,"trial_type":"html-keyboard-response","trial_index":18,"time_elapsed":103951,"internal_node_id":"0.0-3.0-15.0","responseType":"finish","participantID":"eqdftqnyk3aywcx3m8b3y0je8rzygeue","conditionNumber":1},{"rt":null,"stimulus":"\u003cblockquote\u003e\n  \u003ch1 id=\"dleta\"\u003eDLETA\u003c/h1\u003e\n  \u003cp\u003e\u003cbr\u003e\u003c/p\u003e\n\u003c/blockquote\u003e","key_press":null,"trial_type":"html-keyboard-response","trial_index":19,"time_elapsed":114953,"internal_node_id":"0.0-3.0-16.0","responseType":"finish","participantID":"eqdftqnyk3aywcx3m8b3y0je8rzygeue","conditionNumber":1},{"rt":2917,"responses":"{\"Q0\":2}","trial_type":"survey-likert","trial_index":20,"time_elapsed":117873,"internal_node_id":"0.0-4.0-0.0","responseType":"finish","participantID":"eqdftqnyk3aywcx3m8b3y0je8rzygeue","conditionNumber":1},{"rt":2709,"responses":"{\"Q0\":0}","trial_type":"survey-likert","trial_index":21,"time_elapsed":120583,"internal_node_id":"0.0-4.0-0.1","responseType":"finish","participantID":"eqdftqnyk3aywcx3m8b3y0je8rzygeue","conditionNumber":1}],"__v":0}
{"_id":{"$oid":"5ccf25708e69700004088196"},"data":[{"rt":7198,"responses":"{\"Q0\":\" I consent to participate\"}","trial_type":"survey-multi-choice","trial_index":0,"time_elapsed":7203,"internal_node_id":"0.0-0.0","responseType":"finish","participantID":"g8cfcys0chex7v9oph5wefb862x8r2pn","conditionNumber":0},{"trial_type":"call-function","trial_index":1,"time_elapsed":7207,"internal_node_id":"0.0-1.0","responseType":"finish","participantID":"g8cfcys0chex7v9oph5wefb862x8r2pn","conditionNumber":0},{"view_history":"[{\"page_index\":0,\"viewing_time\":4336},{\"page_index\":1,\"viewing_time\":1564},{\"page_index\":2,\"viewing_time\":2772}]","rt":8673,"trial_type":"instructions","trial_index":2,"time_elapsed":15880,"internal_node_id":"0.0-2.0","responseType":"finish","participantID":"g8cfcys0chex7v9oph5wefb862x8r2pn","conditionNumber":0},{"rt":null,"stimulus":"\u003cblockquote\u003e\n  \u003ch1 id=\"iorcnag\"\u003eIORCNAG\u003c/h1\u003e\n  \u003cp\u003e\u003cbr\u003e\u003c/p\u003e\n\u003c/blockquote\u003e","key_press":null,"trial_type":"html-keyboard-response","trial_index":3,"time_elapsed":26882,"internal_node_id":"0.0-3.0-0.0","responseType":"finish","participantID":"g8cfcys0chex7v9oph5wefb862x8r2pn","conditionNumber":0},{"rt":4762,"responses":"{\"Q0\":0}","trial_type":"survey-likert","trial_index":4,"time_elapsed":31645,"internal_node_id":"0.0-3.0-1.0","responseType":"finish","participantID":"g8cfcys0chex7v9oph5wefb862x8r2pn","conditionNumber":0},{"rt":6787,"responses":"{\"Q0\":0}","trial_type":"survey-likert","trial_index":5,"time_elapsed":38433,"internal_node_id":"0.0-3.0-2.0","responseType":"finish","participantID":"g8cfcys0chex7v9oph5wefb862x8r2pn","conditionNumber":0},{"rt":4307,"stimulus":"\u003cblockquote\u003e\n  \u003cp\u003eNow the next anagram will be shown to you. \u003cbr\u003e\u003cbr\u003e Press 'v' to view the next anagram.\u003c/p\u003e\n\u003c/blockquote\u003e","key_press":86,"trial_type":"html-keyboard-response","trial_index":6,"time_elapsed":42742,"internal_node_id":"0.0-3.0-3.0","responseType":"finish","participantID":"g8cfcys0chex7v9oph5wefb862x8r2pn","conditionNumber":0},{"rt":null,"stimulus":"\u003cblockquote\u003e\n  \u003ch1 id=\"hnatuyg\"\u003eHNATUYG\u003c/h1\u003e\n  \u003cp\u003e\u003cbr\u003e\u003c/p\u003e\n\u003c/blockquote\u003e","key_press":null,"trial_type":"html-keyboard-response","trial_index":7,"time_elapsed":53744,"internal_node_id":"0.0-3.0-4.0","responseType":"finish","participantID":"g8cfcys0chex7v9oph5wefb862x8r2pn","conditionNumber":0},{"rt":8056,"responses":"{\"Q0\":1}","trial_type":"survey-likert","trial_index":8,"time_elapsed":61801,"internal_node_id":"0.0-3.0-5.0","responseType":"finish","participantID":"g8cfcys0chex7v9oph5wefb862x8r2pn","conditionNumber":0},{"rt":2821,"responses":"{\"Q0\":0}","trial_type":"survey-likert","trial_index":9,"time_elapsed":64623,"internal_node_id":"0.0-3.0-6.0","responseType":"finish","participantID":"g8cfcys0chex7v9oph5wefb862x8r2pn","conditionNumber":0},{"rt":1975,"stimulus":"\u003cblockquote\u003e\n  \u003cp\u003eNow the next anagram will be shown to you. \u003cbr\u003e\u003cbr\u003e Press 'v' to view the next anagram.\u003c/p\u003e\n\u003c/blockquote\u003e","key_press":86,"trial_type":"html-keyboard-response","trial_index":10,"time_elapsed":66599,"internal_node_id":"0.0-3.0-7.0","responseType":"finish","participantID":"g8cfcys0chex7v9oph5wefb862x8r2pn","conditionNumber":0},{"rt":null,"stimulus":"\u003cblockquote\u003e\n  \u003ch1 id=\"khaomcm\"\u003eKHAOMCM\u003c/h1\u003e\n  \u003cp\u003e\u003cbr\u003e\u003c/p\u003e\n\u003c/blockquote\u003e","key_press":null,"trial_type":"html-keyboard-response","trial_index":11,"time_elapsed":77601,"internal_node_id":"0.0-3.0-8.0","responseType":"finish","participantID":"g8cfcys0chex7v9oph5wefb862x8r2pn","conditionNumber":0},{"rt":12876,"responses":"{\"Q0\":5}","trial_type":"survey-likert","trial_index":12,"time_elapsed":90477,"internal_node_id":"0.0-3.0-9.0","responseType":"finish","participantID":"g8cfcys0chex7v9oph5wefb862x8r2pn","conditionNumber":0},{"rt":2585,"responses":"{\"Q0\":6}","trial_type":"survey-likert","trial_index":13,"time_elapsed":93063,"internal_node_id":"0.0-3.0-10.0","responseType":"finish","participantID":"g8cfcys0chex7v9oph5wefb862x8r2pn","conditionNumber":0},{"rt":8024,"stimulus":"\u003cblockquote\u003e\n  \u003cp\u003eNow the next anagram will be shown to you. \u003cbr\u003e\u003cbr\u003e Press 'v' to view the next anagram.\u003c/p\u003e\n\u003c/blockquote\u003e","key_press":86,"trial_type":"html-keyboard-response","trial_index":14,"time_elapsed":101088,"internal_node_id":"0.0-3.0-11.0","responseType":"finish","participantID":"g8cfcys0chex7v9oph5wefb862x8r2pn","conditionNumber":0},{"rt":null,"stimulus":"\u003cblockquote\u003e\n  \u003ch1 id=\"dalrbeu\"\u003eDALRBEU\u003c/h1\u003e\n  \u003cp\u003e\u003cbr\u003e\u003c/p\u003e\n\u003c/blockquote\u003e","key_press":null,"trial_type":"html-keyboard-response","trial_index":15,"time_elapsed":112090,"internal_node_id":"0.0-3.0-12.0","responseType":"finish","participantID":"g8cfcys0chex7v9oph5wefb862x8r2pn","conditionNumber":0},{"rt":5819,"responses":"{\"Q0\":1}","trial_type":"survey-likert","trial_index":16,"time_elapsed":117909,"internal_node_id":"0.0-3.0-13.0","responseType":"finish","participantID":"g8cfcys0chex7v9oph5wefb862x8r2pn","conditionNumber":0},{"rt":1851,"responses":"{\"Q0\":0}","trial_type":"survey-likert","trial_index":17,"time_elapsed":119761,"internal_node_id":"0.0-3.0-14.0","responseType":"finish","participantID":"g8cfcys0chex7v9oph5wefb862x8r2pn","conditionNumber":0},{"rt":1807,"stimulus":"\u003cblockquote\u003e\n  \u003cp\u003eNow the next anagram will be shown to you. \u003cbr\u003e\u003cbr\u003e Press 'v' to view the next anagram.\u003c/p\u003e\n\u003c/blockquote\u003e","key_press":86,"trial_type":"html-keyboard-response","trial_index":18,"time_elapsed":121569,"internal_node_id":"0.0-3.0-15.0","responseType":"finish","participantID":"g8cfcys0chex7v9oph5wefb862x8r2pn","conditionNumber":0},{"rt":null,"stimulus":"\u003cblockquote\u003e\n  \u003ch1 id=\"dleta\"\u003eDLETA\u003c/h1\u003e\n  \u003cp\u003e\u003cbr\u003e\u003c/p\u003e\n\u003c/blockquote\u003e","key_press":null,"trial_type":"html-keyboard-response","trial_index":19,"time_elapsed":132572,"internal_node_id":"0.0-3.0-16.0","responseType":"finish","participantID":"g8cfcys0chex7v9oph5wefb862x8r2pn","conditionNumber":0},{"rt":2752,"responses":"{\"Q0\":6}","trial_type":"survey-likert","trial_index":20,"time_elapsed":135325,"internal_node_id":"0.0-4.0-0.0","responseType":"finish","participantID":"g8cfcys0chex7v9oph5wefb862x8r2pn","conditionNumber":0},{"rt":3435,"responses":"{\"Q0\":6}","trial_type":"survey-likert","trial_index":21,"time_elapsed":138761,"internal_node_id":"0.0-4.0-0.1","responseType":"finish","participantID":"g8cfcys0chex7v9oph5wefb862x8r2pn","conditionNumber":0}],"__v":0}
{"_id":{"$oid":"5ccf25778e69700004088197"},"data":[{"rt":23521,"responses":"{\"Q0\":\" I consent to participate\"}","trial_type":"survey-multi-choice","trial_index":0,"time_elapsed":23527,"internal_node_id":"0.0-0.0","responseType":"finish","participantID":"xwnovesr3t5swof6j1jscb8m3vp4dttn","conditionNumber":1},{"trial_type":"call-function","trial_index":1,"time_elapsed":23530,"internal_node_id":"0.0-1.0","responseType":"finish","participantID":"xwnovesr3t5swof6j1jscb8m3vp4dttn","conditionNumber":1},{"view_history":"[{\"page_index\":0,\"viewing_time\":19544},{\"page_index\":1,\"viewing_time\":10748},{\"page_index\":2,\"viewing_time\":7053}]","rt":37345,"trial_type":"instructions","trial_index":2,"time_elapsed":60875,"internal_node_id":"0.0-2.0","responseType":"finish","participantID":"xwnovesr3t5swof6j1jscb8m3vp4dttn","conditionNumber":1},{"rt":null,"stimulus":"\u003cblockquote\u003e\n  \u003ch1 id=\"srot\"\u003eSROT\u003c/h1\u003e\n  \u003cp\u003e\u003cbr\u003e\u003c/p\u003e\n\u003c/blockquote\u003e","key_press":null,"trial_type":"html-keyboard-response","trial_index":3,"time_elapsed":71877,"internal_node_id":"0.0-3.0-0.0","responseType":"finish","participantID":"xwnovesr3t5swof6j1jscb8m3vp4dttn","conditionNumber":1},{"rt":14280,"responses":"{\"Q0\":5}","trial_type":"survey-likert","trial_index":4,"time_elapsed":86159,"internal_node_id":"0.0-3.0-1.0","responseType":"finish","participantID":"xwnovesr3t5swof6j1jscb8m3vp4dttn","conditionNumber":1},{"rt":31480,"responses":"{\"Q0\":5}","trial_type":"survey-likert","trial_index":5,"time_elapsed":117640,"internal_node_id":"0.0-3.0-2.0","responseType":"finish","participantID":"xwnovesr3t5swof6j1jscb8m3vp4dttn","conditionNumber":1},{"rt":3474,"stimulus":"\u003cblockquote\u003e\n  \u003cp\u003eNow the next anagram will be shown to you. \u003cbr\u003e\u003cbr\u003e Press 'v' to view the next anagram.\u003c/p\u003e\n\u003c/blockquote\u003e","key_press":86,"trial_type":"html-keyboard-response","trial_index":6,"time_elapsed":121116,"internal_node_id":"0.0-3.0-3.0","responseType":"finish","participantID":"xwnovesr3t5swof6j1jscb8m3vp4dttn","conditionNumber":1},{"rt":null,"stimulus":"\u003cblockquote\u003e\n  \u003ch1 id=\"bluk\"\u003eBLUK\u003c/h1\u003e\n  \u003cp\u003e\u003cbr\u003e\u003c/p\u003e\n\u003c/blockquote\u003e","key_press":null,"trial_type":"html-keyboard-response","trial_index":7,"time_elapsed":132118,"internal_node_id":"0.0-3.0-4.0","responseType":"finish","participantID":"xwnovesr3t5swof6j1jscb8m3vp4dttn","conditionNumber":1},{"rt":10113,"responses":"{\"Q0\":4}","trial_type":"survey-likert","trial_index":8,"time_elapsed":142237,"internal_node_id":"0.0-3.0-5.0","responseType":"finish","participantID":"xwnovesr3t5swof6j1jscb8m3vp4dttn","conditionNumber":1},{"rt":15093,"responses":"{\"Q0\":3}","trial_type":"survey-likert","trial_index":9,"time_elapsed":157331,"internal_node_id":"0.0-3.0-6.0","responseType":"finish","participantID":"xwnovesr3t5swof6j1jscb8m3vp4dttn","conditionNumber":1},{"rt":1335,"stimulus":"\u003cblockquote\u003e\n  \u003cp\u003eNow the next anagram will be shown to you. \u003cbr\u003e\u003cbr\u003e Press 'v' to view the next anagram.\u003c/p\u003e\n\u003c/blockquote\u003e","key_press":86,"trial_type":"html-keyboard-response","trial_index":10,"time_elapsed":158666,"internal_node_id":"0.0-3.0-7.0","responseType":"finish","participantID":"xwnovesr3t5swof6j1jscb8m3vp4dttn","conditionNumber":1},{"rt":null,"stimulus":"\u003cblockquote\u003e\n  \u003ch1 id=\"pitn\"\u003ePITN\u003c/h1\u003e\n  \u003cp\u003e\u003cbr\u003e\u003c/p\u003e\n\u003c/blockquote\u003e","key_press":null,"trial_type":"html-keyboard-response","trial_index":11,"time_elapsed":169668,"internal_node_id":"0.0-3.0-8.0","responseType":"finish","participantID":"xwnovesr3t5swof6j1jscb8m3vp4dttn","conditionNumber":1},{"rt":6336,"responses":"{\"Q0\":4}","trial_type":"survey-likert","trial_index":12,"time_elapsed":176005,"internal_node_id":"0.0-3.0-9.0","responseType":"finish","participantID":"xwnovesr3t5swof6j1jscb8m3vp4dttn","conditionNumber":1},{"rt":3963,"responses":"{\"Q0\":3}","trial_type":"survey-likert","trial_index":13,"time_elapsed":179969,"internal_node_id":"0.0-3.0-10.0","responseType":"finish","participantID":"xwnovesr3t5swof6j1jscb8m3vp4dttn","conditionNumber":1},{"rt":2101,"stimulus":"\u003cblockquote\u003e\n  \u003cp\u003eNow the next anagram will be shown to you. \u003cbr\u003e\u003cbr\u003e Press 'v' to view the next anagram.\u003c/p\u003e\n\u003c/blockquote\u003e","key_press":86,"trial_type":"html-keyboard-response","trial_index":14,"time_elapsed":182071,"internal_node_id":"0.0-3.0-11.0","responseType":"finish","participantID":"xwnovesr3t5swof6j1jscb8m3vp4dttn","conditionNumber":1},{"rt":null,"stimulus":"\u003cblockquote\u003e\n  \u003ch1 id=\"orod\"\u003eOROD\u003c/h1\u003e\n  \u003cp\u003e\u003cbr\u003e\u003c/p\u003e\n\u003c/blockquote\u003e","key_press":null,"trial_type":"html-keyboard-response","trial_index":15,"time_elapsed":193072,"internal_node_id":"0.0-3.0-12.0","responseType":"finish","participantID":"xwnovesr3t5swof6j1jscb8m3vp4dttn","conditionNumber":1},{"rt":4885,"responses":"{\"Q0\":4}","trial_type":"survey-likert","trial_index":16,"time_elapsed":197958,"internal_node_id":"0.0-3.0-13.0","responseType":"finish","participantID":"xwnovesr3t5swof6j1jscb8m3vp4dttn","conditionNumber":1},{"rt":7191,"responses":"{\"Q0\":4}","trial_type":"survey-likert","trial_index":17,"time_elapsed":205150,"internal_node_id":"0.0-3.0-14.0","responseType":"finish","participantID":"xwnovesr3t5swof6j1jscb8m3vp4dttn","conditionNumber":1},{"rt":1443,"stimulus":"\u003cblockquote\u003e\n  \u003cp\u003eNow the next anagram will be shown to you. \u003cbr\u003e\u003cbr\u003e Press 'v' to view the next anagram.\u003c/p\u003e\n\u003c/blockquote\u003e","key_press":86,"trial_type":"html-keyboard-response","trial_index":18,"time_elapsed":206595,"internal_node_id":"0.0-3.0-15.0","responseType":"finish","participantID":"xwnovesr3t5swof6j1jscb8m3vp4dttn","conditionNumber":1},{"rt":null,"stimulus":"\u003cblockquote\u003e\n  \u003ch1 id=\"dleta\"\u003eDLETA\u003c/h1\u003e\n  \u003cp\u003e\u003cbr\u003e\u003c/p\u003e\n\u003c/blockquote\u003e","key_press":null,"trial_type":"html-keyboard-response","trial_index":19,"time_elapsed":217597,"internal_node_id":"0.0-3.0-16.0","responseType":"finish","participantID":"xwnovesr3t5swof6j1jscb8m3vp4dttn","conditionNumber":1},{"rt":5805,"responses":"{\"Q0\":4}","trial_type":"survey-likert","trial_index":20,"time_elapsed":223403,"internal_node_id":"0.0-4.0-0.0","responseType":"finish","participantID":"xwnovesr3t5swof6j1jscb8m3vp4dttn","conditionNumber":1},{"rt":4215,"responses":"{\"Q0\":3}","trial_type":"survey-likert","trial_index":21,"time_elapsed":227620,"internal_node_id":"0.0-4.0-0.1","responseType":"finish","participantID":"xwnovesr3t5swof6j1jscb8m3vp4dttn","conditionNumber":1}],"__v":0}
{"_id":{"$oid":"5ccf25ce8e69700004088198"},"data":{"responseType":"start","participantID":"ez77qaqft6bqjtbs74gy7uc6nru0g8de","conditionNumber":1},"__v":0}
{"_id":{"$oid":"5ccf25e48e69700004088199"},"data":[{"rt":4608,"responses":"{\"Q0\":\" I consent to participate\"}","trial_type":"survey-multi-choice","trial_index":0,"time_elapsed":4612,"internal_node_id":"0.0-0.0","responseType":"finish","participantID":"c3s8go3f21mmskybvq1orcps81515q75","conditionNumber":1},{"trial_type":"call-function","trial_index":1,"time_elapsed":4624,"internal_node_id":"0.0-1.0","responseType":"finish","participantID":"c3s8go3f21mmskybvq1orcps81515q75","conditionNumber":1},{"view_history":"[{\"page_index\":0,\"viewing_time\":4858},{\"page_index\":1,\"viewing_time\":9792},{\"page_index\":2,\"viewing_time\":5711}]","rt":20362,"trial_type":"instructions","trial_index":2,"time_elapsed":24986,"internal_node_id":"0.0-2.0","responseType":"finish","participantID":"c3s8go3f21mmskybvq1orcps81515q75","conditionNumber":1},{"rt":null,"stimulus":"\u003cblockquote\u003e\n  \u003ch1 id=\"srot\"\u003eSROT\u003c/h1\u003e\n  \u003cp\u003e\u003cbr\u003e\u003c/p\u003e\n\u003c/blockquote\u003e","key_press":null,"trial_type":"html-keyboard-response","trial_index":3,"time_elapsed":35989,"internal_node_id":"0.0-3.0-0.0","responseType":"finish","participantID":"c3s8go3f21mmskybvq1orcps81515q75","conditionNumber":1},{"rt":4388,"responses":"{\"Q0\":2}","trial_type":"survey-likert","trial_index":4,"time_elapsed":40379,"internal_node_id":"0.0-3.0-1.0","responseType":"finish","participantID":"c3s8go3f21mmskybvq1orcps81515q75","conditionNumber":1},{"rt":5136,"responses":"{\"Q0\":0}","trial_type":"survey-likert","trial_index":5,"time_elapsed":45522,"internal_node_id":"0.0-3.0-2.0","responseType":"finish","participantID":"c3s8go3f21mmskybvq1orcps81515q75","conditionNumber":1},{"rt":4721,"stimulus":"\u003cblockquote\u003e\n  \u003cp\u003eNow the next anagram will be shown to you. \u003cbr\u003e\u003cbr\u003e Press 'v' to view the next anagram.\u003c/p\u003e\n\u003c/blockquote\u003e","key_press":86,"trial_type":"html-keyboard-response","trial_index":6,"time_elapsed":50249,"internal_node_id":"0.0-3.0-3.0","responseType":"finish","participantID":"c3s8go3f21mmskybvq1orcps81515q75","conditionNumber":1},{"rt":null,"stimulus":"\u003cblockquote\u003e\n  \u003ch1 id=\"bluk\"\u003eBLUK\u003c/h1\u003e\n  \u003cp\u003e\u003cbr\u003e\u003c/p\u003e\n\u003c/blockquote\u003e","key_press":null,"trial_type":"html-keyboard-response","trial_index":7,"time_elapsed":61251,"internal_node_id":"0.0-3.0-4.0","responseType":"finish","participantID":"c3s8go3f21mmskybvq1orcps81515q75","conditionNumber":1},{"rt":2510,"responses":"{\"Q0\":0}","trial_type":"survey-likert","trial_index":8,"time_elapsed":63763,"internal_node_id":"0.0-3.0-5.0","responseType":"finish","participantID":"c3s8go3f21mmskybvq1orcps81515q75","conditionNumber":1},{"rt":3777,"responses":"{\"Q0\":0}","trial_type":"survey-likert","trial_index":9,"time_elapsed":67547,"internal_node_id":"0.0-3.0-6.0","responseType":"finish","participantID":"c3s8go3f21mmskybvq1orcps81515q75","conditionNumber":1},{"rt":3981,"stimulus":"\u003cblockquote\u003e\n  \u003cp\u003eNow the next anagram will be shown to you. \u003cbr\u003e\u003cbr\u003e Press 'v' to view the next anagram.\u003c/p\u003e\n\u003c/blockquote\u003e","key_press":86,"trial_type":"html-keyboard-response","trial_index":10,"time_elapsed":71533,"internal_node_id":"0.0-3.0-7.0","responseType":"finish","participantID":"c3s8go3f21mmskybvq1orcps81515q75","conditionNumber":1},{"rt":null,"stimulus":"\u003cblockquote\u003e\n  \u003ch1 id=\"pitn\"\u003ePITN\u003c/h1\u003e\n  \u003cp\u003e\u003cbr\u003e\u003c/p\u003e\n\u003c/blockquote\u003e","key_press":null,"trial_type":"html-keyboard-response","trial_index":11,"time_elapsed":82534,"internal_node_id":"0.0-3.0-8.0","responseType":"finish","participantID":"c3s8go3f21mmskybvq1orcps81515q75","conditionNumber":1},{"rt":3139,"responses":"{\"Q0\":5}","trial_type":"survey-likert","trial_index":12,"time_elapsed":85674,"internal_node_id":"0.0-3.0-9.0","responseType":"finish","participantID":"c3s8go3f21mmskybvq1orcps81515q75","conditionNumber":1},{"rt":4296,"responses":"{\"Q0\":5}","trial_type":"survey-likert","trial_index":13,"time_elapsed":89978,"internal_node_id":"0.0-3.0-10.0","responseType":"finish","participantID":"c3s8go3f21mmskybvq1orcps81515q75","conditionNumber":1},{"rt":5379,"stimulus":"\u003cblockquote\u003e\n  \u003cp\u003eNow the next anagram will be shown to you. \u003cbr\u003e\u003cbr\u003e Press 'v' to view the next anagram.\u003c/p\u003e\n\u003c/blockquote\u003e","key_press":86,"trial_type":"html-keyboard-response","trial_index":14,"time_elapsed":95363,"internal_node_id":"0.0-3.0-11.0","responseType":"finish","participantID":"c3s8go3f21mmskybvq1orcps81515q75","conditionNumber":1},{"rt":null,"stimulus":"\u003cblockquote\u003e\n  \u003ch1 id=\"orod\"\u003eOROD\u003c/h1\u003e\n  \u003cp\u003e\u003cbr\u003e\u003c/p\u003e\n\u003c/blockquote\u003e","key_press":null,"trial_type":"html-keyboard-response","trial_index":15,"time_elapsed":106364,"internal_node_id":"0.0-3.0-12.0","responseType":"finish","participantID":"c3s8go3f21mmskybvq1orcps81515q75","conditionNumber":1},{"rt":3532,"responses":"{\"Q0\":4}","trial_type":"survey-likert","trial_index":16,"time_elapsed":109897,"internal_node_id":"0.0-3.0-13.0","responseType":"finish","participantID":"c3s8go3f21mmskybvq1orcps81515q75","conditionNumber":1},{"rt":2337,"responses":"{\"Q0\":5}","trial_type":"survey-likert","trial_index":17,"time_elapsed":112242,"internal_node_id":"0.0-3.0-14.0","responseType":"finish","participantID":"c3s8go3f21mmskybvq1orcps81515q75","conditionNumber":1},{"rt":2843,"stimulus":"\u003cblockquote\u003e\n  \u003cp\u003eNow the next anagram will be shown to you. \u003cbr\u003e\u003cbr\u003e Press 'v' to view the next anagram.\u003c/p\u003e\n\u003c/blockquote\u003e","key_press":86,"trial_type":"html-keyboard-response","trial_index":18,"time_elapsed":115090,"internal_node_id":"0.0-3.0-15.0","responseType":"finish","participantID":"c3s8go3f21mmskybvq1orcps81515q75","conditionNumber":1},{"rt":null,"stimulus":"\u003cblockquote\u003e\n  \u003ch1 id=\"dleta\"\u003eDLETA\u003c/h1\u003e\n  \u003cp\u003e\u003cbr\u003e\u003c/p\u003e\n\u003c/blockquote\u003e","key_press":null,"trial_type":"html-keyboard-response","trial_index":19,"time_elapsed":126093,"internal_node_id":"0.0-3.0-16.0","responseType":"finish","participantID":"c3s8go3f21mmskybvq1orcps81515q75","conditionNumber":1},{"rt":8346,"responses":"{\"Q0\":5}","trial_type":"survey-likert","trial_index":20,"time_elapsed":134442,"internal_node_id":"0.0-4.0-0.0","responseType":"finish","participantID":"c3s8go3f21mmskybvq1orcps81515q75","conditionNumber":1},{"rt":2481,"responses":"{\"Q0\":5}","trial_type":"survey-likert","trial_index":21,"time_elapsed":136930,"internal_node_id":"0.0-4.0-0.1","responseType":"finish","participantID":"c3s8go3f21mmskybvq1orcps81515q75","conditionNumber":1}],"__v":0}
{"_id":{"$oid":"5ccf25ed8e6970000408819a"},"data":{"responseType":"start","participantID":"xdt7f2gf8s1dbeke5s9poqh3r2dlf0k2","conditionNumber":0},"__v":0}
{"_id":{"$oid":"5ccf25ee8e6970000408819b"},"data":{"responseType":"start","participantID":"ptthdk66dhw5kjebya93pht5hb70p3du","conditionNumber":1},"__v":0}
{"_id":{"$oid":"5ccf25fb8e6970000408819c"},"data":{"responseType":"start","participantID":"xtk3llm92lfbgba6nymfrnmjk9t9v2s6","conditionNumber":1},"__v":0}
{"_id":{"$oid":"5ccf26058e6970000408819d"},"data":[{"rt":68792,"responses":"{\"Q0\":\" I consent to participate\"}","trial_type":"survey-multi-choice","trial_index":0,"time_elapsed":68797,"internal_node_id":"0.0-0.0","responseType":"finish","participantID":"qmvvlktpbaqj18a8f541f7bbgm31qbpb","conditionNumber":1},{"trial_type":"call-function","trial_index":1,"time_elapsed":68800,"internal_node_id":"0.0-1.0","responseType":"finish","participantID":"qmvvlktpbaqj18a8f541f7bbgm31qbpb","conditionNumber":1},{"view_history":"[{\"page_index\":0,\"viewing_time\":6075},{\"page_index\":1,\"viewing_time\":9544},{\"page_index\":2,\"viewing_time\":7826}]","rt":23446,"trial_type":"instructions","trial_index":2,"time_elapsed":92246,"internal_node_id":"0.0-2.0","responseType":"finish","participantID":"qmvvlktpbaqj18a8f541f7bbgm31qbpb","conditionNumber":1},{"rt":null,"stimulus":"\u003cblockquote\u003e\n  \u003ch1 id=\"srot\"\u003eSROT\u003c/h1\u003e\n  \u003cp\u003e\u003cbr\u003e\u003c/p\u003e\n\u003c/blockquote\u003e","key_press":null,"trial_type":"html-keyboard-response","trial_index":3,"time_elapsed":103248,"internal_node_id":"0.0-3.0-0.0","responseType":"finish","participantID":"qmvvlktpbaqj18a8f541f7bbgm31qbpb","conditionNumber":1},{"rt":20962,"responses":"{\"Q0\":3}","trial_type":"survey-likert","trial_index":4,"time_elapsed":124212,"internal_node_id":"0.0-3.0-1.0","responseType":"finish","participantID":"qmvvlktpbaqj18a8f541f7bbgm31qbpb","conditionNumber":1},{"rt":26350,"responses":"{\"Q0\":3}","trial_type":"survey-likert","trial_index":5,"time_elapsed":150564,"internal_node_id":"0.0-3.0-2.0","responseType":"finish","participantID":"qmvvlktpbaqj18a8f541f7bbgm31qbpb","conditionNumber":1},{"rt":6335,"stimulus":"\u003cblockquote\u003e\n  \u003cp\u003eNow the next anagram will be shown to you. \u003cbr\u003e\u003cbr\u003e Press 'v' to view the next anagram.\u003c/p\u003e\n\u003c/blockquote\u003e","key_press":86,"trial_type":"html-keyboard-response","trial_index":6,"time_elapsed":156901,"internal_node_id":"0.0-3.0-3.0","responseType":"finish","participantID":"qmvvlktpbaqj18a8f541f7bbgm31qbpb","conditionNumber":1},{"rt":null,"stimulus":"\u003cblockquote\u003e\n  \u003ch1 id=\"bluk\"\u003eBLUK\u003c/h1\u003e\n  \u003cp\u003e\u003cbr\u003e\u003c/p\u003e\n\u003c/blockquote\u003e","key_press":null,"trial_type":"html-keyboard-response","trial_index":7,"time_elapsed":167904,"internal_node_id":"0.0-3.0-4.0","responseType":"finish","participantID":"qmvvlktpbaqj18a8f541f7bbgm31qbpb","conditionNumber":1},{"rt":8881,"responses":"{\"Q0\":5}","trial_type":"survey-likert","trial_index":8,"time_elapsed":176788,"internal_node_id":"0.0-3.0-5.0","responseType":"finish","participantID":"qmvvlktpbaqj18a8f541f7bbgm31qbpb","conditionNumber":1},{"rt":14566,"responses":"{\"Q0\":1}","trial_type":"survey-likert","trial_index":9,"time_elapsed":191356,"internal_node_id":"0.0-3.0-6.0","responseType":"finish","participantID":"qmvvlktpbaqj18a8f541f7bbgm31qbpb","conditionNumber":1},{"rt":2150,"stimulus":"\u003cblockquote\u003e\n  \u003cp\u003eNow the next anagram will be shown to you. \u003cbr\u003e\u003cbr\u003e Press 'v' to view the next anagram.\u003c/p\u003e\n\u003c/blockquote\u003e","key_press":86,"trial_type":"html-keyboard-response","trial_index":10,"time_elapsed":193507,"internal_node_id":"0.0-3.0-7.0","responseType":"finish","participantID":"qmvvlktpbaqj18a8f541f7bbgm31qbpb","conditionNumber":1},{"rt":null,"stimulus":"\u003cblockquote\u003e\n  \u003ch1 id=\"pitn\"\u003ePITN\u003c/h1\u003e\n  \u003cp\u003e\u003cbr\u003e\u003c/p\u003e\n\u003c/blockquote\u003e","key_press":null,"trial_type":"html-keyboard-response","trial_index":11,"time_elapsed":204508,"internal_node_id":"0.0-3.0-8.0","responseType":"finish","participantID":"qmvvlktpbaqj18a8f541f7bbgm31qbpb","conditionNumber":1},{"rt":5678,"responses":"{\"Q0\":5}","trial_type":"survey-likert","trial_index":12,"time_elapsed":210188,"internal_node_id":"0.0-3.0-9.0","responseType":"finish","participantID":"qmvvlktpbaqj18a8f541f7bbgm31qbpb","conditionNumber":1},{"rt":6638,"responses":"{\"Q0\":1}","trial_type":"survey-likert","trial_index":13,"time_elapsed":216828,"internal_node_id":"0.0-3.0-10.0","responseType":"finish","participantID":"qmvvlktpbaqj18a8f541f7bbgm31qbpb","conditionNumber":1},{"rt":2454,"stimulus":"\u003cblockquote\u003e\n  \u003cp\u003eNow the next anagram will be shown to you. \u003cbr\u003e\u003cbr\u003e Press 'v' to view the next anagram.\u003c/p\u003e\n\u003c/blockquote\u003e","key_press":86,"trial_type":"html-keyboard-response","trial_index":14,"time_elapsed":219283,"internal_node_id":"0.0-3.0-11.0","responseType":"finish","participantID":"qmvvlktpbaqj18a8f541f7bbgm31qbpb","conditionNumber":1},{"rt":null,"stimulus":"\u003cblockquote\u003e\n  \u003ch1 id=\"orod\"\u003eOROD\u003c/h1\u003e\n  \u003cp\u003e\u003cbr\u003e\u003c/p\u003e\n\u003c/blockquote\u003e","key_press":null,"trial_type":"html-keyboard-response","trial_index":15,"time_elapsed":230285,"internal_node_id":"0.0-3.0-12.0","responseType":"finish","participantID":"qmvvlktpbaqj18a8f541f7bbgm31qbpb","conditionNumber":1},{"rt":3021,"responses":"{\"Q0\":5}","trial_type":"survey-likert","trial_index":16,"time_elapsed":233308,"internal_node_id":"0.0-3.0-13.0","responseType":"finish","participantID":"qmvvlktpbaqj18a8f541f7bbgm31qbpb","conditionNumber":1},{"rt":4326,"responses":"{\"Q0\":2}","trial_type":"survey-likert","trial_index":17,"time_elapsed":237636,"internal_node_id":"0.0-3.0-14.0","responseType":"finish","participantID":"qmvvlktpbaqj18a8f541f7bbgm31qbpb","conditionNumber":1},{"rt":1901,"stimulus":"\u003cblockquote\u003e\n  \u003cp\u003eNow the next anagram will be shown to you. \u003cbr\u003e\u003cbr\u003e Press 'v' to view the next anagram.\u003c/p\u003e\n\u003c/blockquote\u003e","key_press":86,"trial_type":"html-keyboard-response","trial_index":18,"time_elapsed":239538,"internal_node_id":"0.0-3.0-15.0","responseType":"finish","participantID":"qmvvlktpbaqj18a8f541f7bbgm31qbpb","conditionNumber":1},{"rt":null,"stimulus":"\u003cblockquote\u003e\n  \u003ch1 id=\"dleta\"\u003eDLETA\u003c/h1\u003e\n  \u003cp\u003e\u003cbr\u003e\u003c/p\u003e\n\u003c/blockquote\u003e","key_press":null,"trial_type":"html-keyboard-response","trial_index":19,"time_elapsed":250541,"internal_node_id":"0.0-3.0-16.0","responseType":"finish","participantID":"qmvvlktpbaqj18a8f541f7bbgm31qbpb","conditionNumber":1},{"rt":4613,"responses":"{\"Q0\":4}","trial_type":"survey-likert","trial_index":20,"time_elapsed":255156,"internal_node_id":"0.0-4.0-0.0","responseType":"finish","participantID":"qmvvlktpbaqj18a8f541f7bbgm31qbpb","conditionNumber":1},{"rt":4870,"responses":"{\"Q0\":1}","trial_type":"survey-likert","trial_index":21,"time_elapsed":260028,"internal_node_id":"0.0-4.0-0.1","responseType":"finish","participantID":"qmvvlktpbaqj18a8f541f7bbgm31qbpb","conditionNumber":1}],"__v":0}
{"_id":{"$oid":"5ccf262c8e6970000408819e"},"data":{"responseType":"start","participantID":"sfg06j3zjmz7t25tejlbpqgzbff4cpuz","conditionNumber":0},"__v":0}
{"_id":{"$oid":"5ccf263b8e6970000408819f"},"data":[{"rt":18330,"responses":"{\"Q0\":\" I consent to participate\"}","trial_type":"survey-multi-choice","trial_index":0,"time_elapsed":18333,"internal_node_id":"0.0-0.0","responseType":"finish","participantID":"ez77qaqft6bqjtbs74gy7uc6nru0g8de","conditionNumber":1},{"trial_type":"call-function","trial_index":1,"time_elapsed":18336,"internal_node_id":"0.0-1.0","responseType":"finish","participantID":"ez77qaqft6bqjtbs74gy7uc6nru0g8de","conditionNumber":1},{"view_history":"[{\"page_index\":0,\"viewing_time\":3042},{\"page_index\":1,\"viewing_time\":2879},{\"page_index\":2,\"viewing_time\":4927}]","rt":10848,"trial_type":"instructions","trial_index":2,"time_elapsed":29184,"internal_node_id":"0.0-2.0","responseType":"finish","participantID":"ez77qaqft6bqjtbs74gy7uc6nru0g8de","conditionNumber":1},{"rt":null,"stimulus":"\u003cblockquote\u003e\n  \u003ch1 id=\"srot\"\u003eSROT\u003c/h1\u003e\n  \u003cp\u003e\u003cbr\u003e\u003c/p\u003e\n\u003c/blockquote\u003e","key_press":null,"trial_type":"html-keyboard-response","trial_index":3,"time_elapsed":40186,"internal_node_id":"0.0-3.0-0.0","responseType":"finish","participantID":"ez77qaqft6bqjtbs74gy7uc6nru0g8de","conditionNumber":1},{"rt":5049,"responses":"{\"Q0\":6}","trial_type":"survey-likert","trial_index":4,"time_elapsed":45235,"internal_node_id":"0.0-3.0-1.0","responseType":"finish","participantID":"ez77qaqft6bqjtbs74gy7uc6nru0g8de","conditionNumber":1},{"rt":6864,"responses":"{\"Q0\":0}","trial_type":"survey-likert","trial_index":5,"time_elapsed":52101,"internal_node_id":"0.0-3.0-2.0","responseType":"finish","participantID":"ez77qaqft6bqjtbs74gy7uc6nru0g8de","conditionNumber":1},{"rt":2704,"stimulus":"\u003cblockquote\u003e\n  \u003cp\u003eNow the next anagram will be shown to you. \u003cbr\u003e\u003cbr\u003e Press 'v' to view the next anagram.\u003c/p\u003e\n\u003c/blockquote\u003e","key_press":86,"trial_type":"html-keyboard-response","trial_index":6,"time_elapsed":54805,"internal_node_id":"0.0-3.0-3.0","responseType":"finish","participantID":"ez77qaqft6bqjtbs74gy7uc6nru0g8de","conditionNumber":1},{"rt":null,"stimulus":"\u003cblockquote\u003e\n  \u003ch1 id=\"bluk\"\u003eBLUK\u003c/h1\u003e\n  \u003cp\u003e\u003cbr\u003e\u003c/p\u003e\n\u003c/blockquote\u003e","key_press":null,"trial_type":"html-keyboard-response","trial_index":7,"time_elapsed":65805,"internal_node_id":"0.0-3.0-4.0","responseType":"finish","participantID":"ez77qaqft6bqjtbs74gy7uc6nru0g8de","conditionNumber":1},{"rt":5579,"responses":"{\"Q0\":4}","trial_type":"survey-likert","trial_index":8,"time_elapsed":71385,"internal_node_id":"0.0-3.0-5.0","responseType":"finish","participantID":"ez77qaqft6bqjtbs74gy7uc6nru0g8de","conditionNumber":1},{"rt":2142,"responses":"{\"Q0\":0}","trial_type":"survey-likert","trial_index":9,"time_elapsed":73528,"internal_node_id":"0.0-3.0-6.0","responseType":"finish","participantID":"ez77qaqft6bqjtbs74gy7uc6nru0g8de","conditionNumber":1},{"rt":1867,"stimulus":"\u003cblockquote\u003e\n  \u003cp\u003eNow the next anagram will be shown to you. \u003cbr\u003e\u003cbr\u003e Press 'v' to view the next anagram.\u003c/p\u003e\n\u003c/blockquote\u003e","key_press":86,"trial_type":"html-keyboard-response","trial_index":10,"time_elapsed":75396,"internal_node_id":"0.0-3.0-7.0","responseType":"finish","participantID":"ez77qaqft6bqjtbs74gy7uc6nru0g8de","conditionNumber":1},{"rt":null,"stimulus":"\u003cblockquote\u003e\n  \u003ch1 id=\"pitn\"\u003ePITN\u003c/h1\u003e\n  \u003cp\u003e\u003cbr\u003e\u003c/p\u003e\n\u003c/blockquote\u003e","key_press":null,"trial_type":"html-keyboard-response","trial_index":11,"time_elapsed":86397,"internal_node_id":"0.0-3.0-8.0","responseType":"finish","participantID":"ez77qaqft6bqjtbs74gy7uc6nru0g8de","conditionNumber":1},{"rt":3995,"responses":"{\"Q0\":3}","trial_type":"survey-likert","trial_index":12,"time_elapsed":90392,"internal_node_id":"0.0-3.0-9.0","responseType":"finish","participantID":"ez77qaqft6bqjtbs74gy7uc6nru0g8de","conditionNumber":1},{"rt":1426,"responses":"{\"Q0\":0}","trial_type":"survey-likert","trial_index":13,"time_elapsed":91820,"internal_node_id":"0.0-3.0-10.0","responseType":"finish","participantID":"ez77qaqft6bqjtbs74gy7uc6nru0g8de","conditionNumber":1},{"rt":651,"stimulus":"\u003cblockquote\u003e\n  \u003cp\u003eNow the next anagram will be shown to you. \u003cbr\u003e\u003cbr\u003e Press 'v' to view the next anagram.\u003c/p\u003e\n\u003c/blockquote\u003e","key_press":86,"trial_type":"html-keyboard-response","trial_index":14,"time_elapsed":92471,"internal_node_id":"0.0-3.0-11.0","responseType":"finish","participantID":"ez77qaqft6bqjtbs74gy7uc6nru0g8de","conditionNumber":1},{"rt":null,"stimulus":"\u003cblockquote\u003e\n  \u003ch1 id=\"orod\"\u003eOROD\u003c/h1\u003e\n  \u003cp\u003e\u003cbr\u003e\u003c/p\u003e\n\u003c/blockquote\u003e","key_press":null,"trial_type":"html-keyboard-response","trial_index":15,"time_elapsed":103472,"internal_node_id":"0.0-3.0-12.0","responseType":"finish","participantID":"ez77qaqft6bqjtbs74gy7uc6nru0g8de","conditionNumber":1},{"rt":3958,"responses":"{\"Q0\":3}","trial_type":"survey-likert","trial_index":16,"time_elapsed":107430,"internal_node_id":"0.0-3.0-13.0","responseType":"finish","participantID":"ez77qaqft6bqjtbs74gy7uc6nru0g8de","conditionNumber":1},{"rt":3783,"responses":"{\"Q0\":0}","trial_type":"survey-likert","trial_index":17,"time_elapsed":111215,"internal_node_id":"0.0-3.0-14.0","responseType":"finish","participantID":"ez77qaqft6bqjtbs74gy7uc6nru0g8de","conditionNumber":1},{"rt":724,"stimulus":"\u003cblockquote\u003e\n  \u003cp\u003eNow the next anagram will be shown to you. \u003cbr\u003e\u003cbr\u003e Press 'v' to view the next anagram.\u003c/p\u003e\n\u003c/blockquote\u003e","key_press":86,"trial_type":"html-keyboard-response","trial_index":18,"time_elapsed":111939,"internal_node_id":"0.0-3.0-15.0","responseType":"finish","participantID":"ez77qaqft6bqjtbs74gy7uc6nru0g8de","conditionNumber":1},{"rt":null,"stimulus":"\u003cblockquote\u003e\n  \u003ch1 id=\"dleta\"\u003eDLETA\u003c/h1\u003e\n  \u003cp\u003e\u003cbr\u003e\u003c/p\u003e\n\u003c/blockquote\u003e","key_press":null,"trial_type":"html-keyboard-response","trial_index":19,"time_elapsed":122942,"internal_node_id":"0.0-3.0-16.0","responseType":"finish","participantID":"ez77qaqft6bqjtbs74gy7uc6nru0g8de","conditionNumber":1},{"rt":2146,"responses":"{\"Q0\":3}","trial_type":"survey-likert","trial_index":20,"time_elapsed":125088,"internal_node_id":"0.0-4.0-0.0","responseType":"finish","participantID":"ez77qaqft6bqjtbs74gy7uc6nru0g8de","conditionNumber":1},{"rt":1721,"responses":"{\"Q0\":0}","trial_type":"survey-likert","trial_index":21,"time_elapsed":126811,"internal_node_id":"0.0-4.0-0.1","responseType":"finish","participantID":"ez77qaqft6bqjtbs74gy7uc6nru0g8de","conditionNumber":1}],"__v":0}
{"_id":{"$oid":"5ccf264c8e697000040881a0"},"data":{"responseType":"start","participantID":"pjhfnqwdenmlobzl76s0es4xff75rvrt","conditionNumber":1},"__v":0}
{"_id":{"$oid":"5ccf26698e697000040881a1"},"data":{"responseType":"start","participantID":"n54udhf1cn9zwjbod1qhvf7ggxhd9quq","conditionNumber":0},"__v":0}
{"_id":{"$oid":"5ccf26798e697000040881a2"},"data":{"responseType":"start","participantID":"rkb9pl6qp8lhxv1q6r4lclag0g6far56","conditionNumber":1},"__v":0}
{"_id":{"$oid":"5ccf269f8e697000040881a3"},"data":[{"rt":4758,"responses":"{\"Q0\":\" I consent to participate\"}","trial_type":"survey-multi-choice","trial_index":0,"time_elapsed":4762,"internal_node_id":"0.0-0.0","responseType":"finish","participantID":"sfg06j3zjmz7t25tejlbpqgzbff4cpuz","conditionNumber":0},{"trial_type":"call-function","trial_index":1,"time_elapsed":4767,"internal_node_id":"0.0-1.0","responseType":"finish","participantID":"sfg06j3zjmz7t25tejlbpqgzbff4cpuz","conditionNumber":0},{"view_history":"[{\"page_index\":0,\"viewing_time\":3611},{\"page_index\":1,\"viewing_time\":4295},{\"page_index\":2,\"viewing_time\":2986}]","rt":10892,"trial_type":"instructions","trial_index":2,"time_elapsed":15659,"internal_node_id":"0.0-2.0","responseType":"finish","participantID":"sfg06j3zjmz7t25tejlbpqgzbff4cpuz","conditionNumber":0},{"rt":null,"stimulus":"\u003cblockquote\u003e\n  \u003ch1 id=\"iorcnag\"\u003eIORCNAG\u003c/h1\u003e\n  \u003cp\u003e\u003cbr\u003e\u003c/p\u003e\n\u003c/blockquote\u003e","key_press":null,"trial_type":"html-keyboard-response","trial_index":3,"time_elapsed":26661,"internal_node_id":"0.0-3.0-0.0","responseType":"finish","participantID":"sfg06j3zjmz7t25tejlbpqgzbff4cpuz","conditionNumber":0},{"rt":6431,"responses":"{\"Q0\":4}","trial_type":"survey-likert","trial_index":4,"time_elapsed":33097,"internal_node_id":"0.0-3.0-1.0","responseType":"finish","participantID":"sfg06j3zjmz7t25tejlbpqgzbff4cpuz","conditionNumber":0},{"rt":10495,"responses":"{\"Q0\":6}","trial_type":"survey-likert","trial_index":5,"time_elapsed":43594,"internal_node_id":"0.0-3.0-2.0","responseType":"finish","participantID":"sfg06j3zjmz7t25tejlbpqgzbff4cpuz","conditionNumber":0},{"rt":2522,"stimulus":"\u003cblockquote\u003e\n  \u003cp\u003eNow the next anagram will be shown to you. \u003cbr\u003e\u003cbr\u003e Press 'v' to view the next anagram.\u003c/p\u003e\n\u003c/blockquote\u003e","key_press":86,"trial_type":"html-keyboard-response","trial_index":6,"time_elapsed":46117,"internal_node_id":"0.0-3.0-3.0","responseType":"finish","participantID":"sfg06j3zjmz7t25tejlbpqgzbff4cpuz","conditionNumber":0},{"rt":null,"stimulus":"\u003cblockquote\u003e\n  \u003ch1 id=\"hnatuyg\"\u003eHNATUYG\u003c/h1\u003e\n  \u003cp\u003e\u003cbr\u003e\u003c/p\u003e\n\u003c/blockquote\u003e","key_press":null,"trial_type":"html-keyboard-response","trial_index":7,"time_elapsed":57119,"internal_node_id":"0.0-3.0-4.0","responseType":"finish","participantID":"sfg06j3zjmz7t25tejlbpqgzbff4cpuz","conditionNumber":0},{"rt":3041,"responses":"{\"Q0\":2}","trial_type":"survey-likert","trial_index":8,"time_elapsed":60161,"internal_node_id":"0.0-3.0-5.0","responseType":"finish","participantID":"sfg06j3zjmz7t25tejlbpqgzbff4cpuz","conditionNumber":0},{"rt":3653,"responses":"{\"Q0\":0}","trial_type":"survey-likert","trial_index":9,"time_elapsed":63816,"internal_node_id":"0.0-3.0-6.0","responseType":"finish","participantID":"sfg06j3zjmz7t25tejlbpqgzbff4cpuz","conditionNumber":0},{"rt":1664,"stimulus":"\u003cblockquote\u003e\n  \u003cp\u003eNow the next anagram will be shown to you. \u003cbr\u003e\u003cbr\u003e Press 'v' to view the next anagram.\u003c/p\u003e\n\u003c/blockquote\u003e","key_press":86,"trial_type":"html-keyboard-response","trial_index":10,"time_elapsed":65481,"internal_node_id":"0.0-3.0-7.0","responseType":"finish","participantID":"sfg06j3zjmz7t25tejlbpqgzbff4cpuz","conditionNumber":0},{"rt":null,"stimulus":"\u003cblockquote\u003e\n  \u003ch1 id=\"khaomcm\"\u003eKHAOMCM\u003c/h1\u003e\n  \u003cp\u003e\u003cbr\u003e\u003c/p\u003e\n\u003c/blockquote\u003e","key_press":null,"trial_type":"html-keyboard-response","trial_index":11,"time_elapsed":76485,"internal_node_id":"0.0-3.0-8.0","responseType":"finish","participantID":"sfg06j3zjmz7t25tejlbpqgzbff4cpuz","conditionNumber":0},{"rt":3735,"responses":"{\"Q0\":5}","trial_type":"survey-likert","trial_index":12,"time_elapsed":80220,"internal_node_id":"0.0-3.0-9.0","responseType":"finish","participantID":"sfg06j3zjmz7t25tejlbpqgzbff4cpuz","conditionNumber":0},{"rt":2113,"responses":"{\"Q0\":4}","trial_type":"survey-likert","trial_index":13,"time_elapsed":82335,"internal_node_id":"0.0-3.0-10.0","responseType":"finish","participantID":"sfg06j3zjmz7t25tejlbpqgzbff4cpuz","conditionNumber":0},{"rt":2355,"stimulus":"\u003cblockquote\u003e\n  \u003cp\u003eNow the next anagram will be shown to you. \u003cbr\u003e\u003cbr\u003e Press 'v' to view the next anagram.\u003c/p\u003e\n\u003c/blockquote\u003e","key_press":86,"trial_type":"html-keyboard-response","trial_index":14,"time_elapsed":84691,"internal_node_id":"0.0-3.0-11.0","responseType":"finish","participantID":"sfg06j3zjmz7t25tejlbpqgzbff4cpuz","conditionNumber":0},{"rt":null,"stimulus":"\u003cblockquote\u003e\n  \u003ch1 id=\"dalrbeu\"\u003eDALRBEU\u003c/h1\u003e\n  \u003cp\u003e\u003cbr\u003e\u003c/p\u003e\n\u003c/blockquote\u003e","key_press":null,"trial_type":"html-keyboard-response","trial_index":15,"time_elapsed":95693,"internal_node_id":"0.0-3.0-12.0","responseType":"finish","participantID":"sfg06j3zjmz7t25tejlbpqgzbff4cpuz","conditionNumber":0},{"rt":2983,"responses":"{\"Q0\":4}","trial_type":"survey-likert","trial_index":16,"time_elapsed":98677,"internal_node_id":"0.0-3.0-13.0","responseType":"finish","participantID":"sfg06j3zjmz7t25tejlbpqgzbff4cpuz","conditionNumber":0},{"rt":1990,"responses":"{\"Q0\":5}","trial_type":"survey-likert","trial_index":17,"time_elapsed":100668,"internal_node_id":"0.0-3.0-14.0","responseType":"finish","participantID":"sfg06j3zjmz7t25tejlbpqgzbff4cpuz","conditionNumber":0},{"rt":1350,"stimulus":"\u003cblockquote\u003e\n  \u003cp\u003eNow the next anagram will be shown to you. \u003cbr\u003e\u003cbr\u003e Press 'v' to view the next anagram.\u003c/p\u003e\n\u003c/blockquote\u003e","key_press":86,"trial_type":"html-keyboard-response","trial_index":18,"time_elapsed":102020,"internal_node_id":"0.0-3.0-15.0","responseType":"finish","participantID":"sfg06j3zjmz7t25tejlbpqgzbff4cpuz","conditionNumber":0},{"rt":null,"stimulus":"\u003cblockquote\u003e\n  \u003ch1 id=\"dleta\"\u003eDLETA\u003c/h1\u003e\n  \u003cp\u003e\u003cbr\u003e\u003c/p\u003e\n\u003c/blockquote\u003e","key_press":null,"trial_type":"html-keyboard-response","trial_index":19,"time_elapsed":113023,"internal_node_id":"0.0-3.0-16.0","responseType":"finish","participantID":"sfg06j3zjmz7t25tejlbpqgzbff4cpuz","conditionNumber":0},{"rt":2069,"responses":"{\"Q0\":3}","trial_type":"survey-likert","trial_index":20,"time_elapsed":115096,"internal_node_id":"0.0-4.0-0.0","responseType":"finish","participantID":"sfg06j3zjmz7t25tejlbpqgzbff4cpuz","conditionNumber":0},{"rt":4170,"responses":"{\"Q0\":3}","trial_type":"survey-likert","trial_index":21,"time_elapsed":119269,"internal_node_id":"0.0-4.0-0.1","responseType":"finish","participantID":"sfg06j3zjmz7t25tejlbpqgzbff4cpuz","conditionNumber":0}],"__v":0}
