{"_id":{"$oid":"5c47535742c271000439cfbd"},"data":{"responseType":"start","participantID":"qfvftzaoa9qmz0j90p9gfunrvq4pzlkm","conditionNumber":1},"__v":0}
{"_id":{"$oid":"5c47535742c271000439cfbe"},"data":{"responseType":"start","participantID":"o3uz3edgwhzasslneuuk2x8t7v0jk37y","conditionNumber":0},"__v":0}
{"_id":{"$oid":"5c47536b42c271000439cfbf"},"data":{"responseType":"start","participantID":"r0mfozfj2jtk57zbaotrfakyurtkn7ek","conditionNumber":1},"__v":0}
{"_id":{"$oid":"5c47536d42c271000439cfc0"},"data":{"responseType":"start","participantID":"w8omb15m1su7ru3f2od7kma2m4x6po57","conditionNumber":1},"__v":0}
{"_id":{"$oid":"5c47537642c271000439cfc1"},"data":{"responseType":"start","participantID":"ac2xfjq4f69olmzqk792t3lbsstrx2fb","conditionNumber":0},"__v":0}
{"_id":{"$oid":"5c47538842c271000439cfc2"},"data":{"responseType":"start","participantID":"rxqzqdx2k6pa8m0vb7phowwommcdtfw1","conditionNumber":0},"__v":0}
{"_id":{"$oid":"5c47539142c271000439cfc3"},"data":{"responseType":"start","participantID":"ues7ytv0pznkkco63gkc7n7sha4pwwgo","conditionNumber":0},"__v":0}
{"_id":{"$oid":"5c47539b42c271000439cfc4"},"data":{"responseType":"start","participantID":"pffh609c34h6ph84e1yngxpolshqdhgq","conditionNumber":0},"__v":0}
{"_id":{"$oid":"5c4753a242c271000439cfc5"},"data":[{"rt":3952,"responses":"{\"Q0\":\" I consent to participate\"}","trial_type":"survey-multi-choice","trial_index":0,"time_elapsed":3956,"internal_node_id":"0.0-0.0","responseType":"finish","participantID":"o3uz3edgwhzasslneuuk2x8t7v0jk37y","conditionNumber":0},{"trial_type":"call-function","trial_index":1,"time_elapsed":3959,"internal_node_id":"0.0-1.0","responseType":"finish","participantID":"o3uz3edgwhzasslneuuk2x8t7v0jk37y","conditionNumber":0},{"view_history":"[{\"page_index\":0,\"viewing_time\":2419}]","rt":2419,"trial_type":"instructions","trial_index":2,"time_elapsed":6379,"internal_node_id":"0.0-2.0","responseType":"finish","participantID":"o3uz3edgwhzasslneuuk2x8t7v0jk37y","conditionNumber":0},{"rt":14274,"stimulus":"\u003cblockquote\u003e\n  \u003ch1 id=\"puzzle\"\u003ePuzzle\u003c/h1\u003e\n  \u003cp\u003eSherlock Holmes was in his house reading when suddenly a rock came crashing through the window. Holmes just got up in time to see three neighborhood kids who were brothers running away. Their names were John Smith, Mark Smith, and Paul Smith. \u003cbr\u003e\u003cbr\u003e\u003cbr\u003e\u003cbr\u003e\u003cbr\u003e\u003cbr\u003e\u003cbr\u003e\u003cbr\u003e Press 'n' once you are ready to read the next part of the puzzle.\u003c/p\u003e\n\u003c/blockquote\u003e","key_press":78,"trial_type":"html-keyboard-response","trial_index":3,"time_elapsed":20653,"internal_node_id":"0.0-3.0-0.0","responseType":"finish","participantID":"o3uz3edgwhzasslneuuk2x8t7v0jk37y","conditionNumber":0},{"rt":7058,"stimulus":"\u003cblockquote\u003e\n  \u003ch1 id=\"puzzle\"\u003ePuzzle\u003c/h1\u003e\n  \u003cp\u003eSherlock Holmes was in his house reading when suddenly a rock came crashing through the window. Holmes just got up in time to see three neighborhood kids who were brothers running away. Their names were John Smith, Mark Smith, and Paul Smith.\u003c/p\u003e\n  \u003cp\u003eThe next day Holmes got a note on his door that read: \"? Smith. He broke your window.\" \u003cbr\u003e\u003cbr\u003e\u003cbr\u003e\u003cbr\u003e\u003cbr\u003e\u003cbr\u003e Press 'n' once you are ready to read the next part of the puzzle.\u003c/p\u003e\n\u003c/blockquote\u003e","key_press":78,"trial_type":"html-keyboard-response","trial_index":4,"time_elapsed":27711,"internal_node_id":"0.0-3.0-1.0","responseType":"finish","participantID":"o3uz3edgwhzasslneuuk2x8t7v0jk37y","conditionNumber":0},{"rt":null,"stimulus":"\u003cblockquote\u003e\n  \u003ch1 id=\"puzzle\"\u003ePuzzle\u003c/h1\u003e\n  \u003cp\u003eSherlock Holmes was in his house reading when suddenly a rock came crashing through the window. Holmes just got up in time to see three neighborhood kids who were brothers running away. Their names were John Smith, Mark Smith, and Paul Smith.\u003c/p\u003e\n  \u003cp\u003eThe next day Holmes got a note on his door that read: \"? Smith. He broke your window.\" \u003c/p\u003e\n  \u003ch2 id=\"whichofthethreesmithbrothersshouldsherlockquestionabouttheincident\"\u003e\u003cem\u003eWhich of the three Smith brothers should Sherlock question about the incident?\u003c/em\u003e\u003c/h2\u003e\n  \u003cp\u003e\u003cbr\u003e\u003cbr\u003e\u003cbr\u003e\u003cbr\u003e\u003c/p\u003e\n\u003c/blockquote\u003e","key_press":null,"trial_type":"html-keyboard-response","trial_index":5,"time_elapsed":32715,"internal_node_id":"0.0-3.0-2.0","responseType":"finish","participantID":"o3uz3edgwhzasslneuuk2x8t7v0jk37y","conditionNumber":0},{"rt":null,"stimulus":"\u003cblockquote\u003e\n  \u003ch1 id=\"puzzle\"\u003ePuzzle\u003c/h1\u003e\n  \u003cp\u003eSherlock Holmes was in his house reading when suddenly a rock came crashing through the window. Holmes just got up in time to see three neighborhood kids who were brothers running away. Their names were John Smith, Mark Smith, and Paul Smith.\u003c/p\u003e\n  \u003cp\u003eThe next day Holmes got a note on his door that read: \"? Smith. He broke your window.\" \u003c/p\u003e\n  \u003ch2 id=\"whichofthethreesmithbrothersshouldsherlockquestionabouttheincident\"\u003e\u003cem\u003eWhich of the three Smith brothers should Sherlock question about the incident?\u003c/em\u003e\u003c/h2\u003e\n  \u003cp\u003e.\u003cbr\u003e .\u003cbr\u003e We will now give you \u003cstrong\u003e60 seconds\u003c/strong\u003e to think about the answer to this problem. \u003c/p\u003e\n  \u003ch2 id=\"after60secondswewillshowyouahinttohelpsolvetheproblem\"\u003eAfter \u003cstrong\u003e60 seconds\u003c/strong\u003e, we will show you a \u003cstrong\u003ehint\u003c/strong\u003e to help solve the problem.\u003c/h2\u003e\n\u003c/blockquote\u003e","key_press":null,"trial_type":"html-keyboard-response","trial_index":6,"time_elapsed":52722,"internal_node_id":"0.0-3.0-3.0","responseType":"finish","participantID":"o3uz3edgwhzasslneuuk2x8t7v0jk37y","conditionNumber":0},{"rt":7726,"stimulus":"\u003cblockquote\u003e\n  \u003cp\u003e\u003cstrong\u003eHINT:\u003c/strong\u003e What is the english translation of the symbol \"?\"\u003c/p\u003e\n\u003c/blockquote\u003e","key_press":78,"trial_type":"html-keyboard-response","trial_index":7,"time_elapsed":60448,"internal_node_id":"0.0-3.0-4.0","responseType":"finish","participantID":"o3uz3edgwhzasslneuuk2x8t7v0jk37y","conditionNumber":0},{"rt":11796,"response":"11","stimulus":"\u003cp\u003eAn Aha! moment is when the solution suddenly dawns on you and everything is clear immediately. In a flash. As an example, imagine a light bulb that is switched on all at once in contrast to slowly turning up the lights.\u003c/p\u003e\u003cp\u003ePlease rate your experience of an Aha! moment upon getting the solution to this puzzle. \u003c/p\u003e","trial_type":"html-slider-response","trial_index":8,"time_elapsed":72246,"internal_node_id":"0.0-4.0-0.0","responseType":"finish","participantID":"o3uz3edgwhzasslneuuk2x8t7v0jk37y","conditionNumber":0},{"rt":5521,"response":"70","stimulus":"Please rate how you felt once you understood the solution to the riddle.","trial_type":"html-slider-response","trial_index":9,"time_elapsed":77769,"internal_node_id":"0.0-4.0-0.1","responseType":"finish","participantID":"o3uz3edgwhzasslneuuk2x8t7v0jk37y","conditionNumber":0}],"__v":0}
{"_id":{"$oid":"5c4753a642c271000439cfc6"},"data":{"responseType":"start","participantID":"swflau0je52a8fwmnzw19u02xdzuzfc0","conditionNumber":0},"__v":0}
{"_id":{"$oid":"5c4753ab42c271000439cfc7"},"data":{"responseType":"start","participantID":"5gvm1t4mhyr2luyd3oas7m8knnep5e9p","conditionNumber":0},"__v":0}
{"_id":{"$oid":"5c4753ad42c271000439cfc8"},"data":{"responseType":"start","participantID":"1gj6xjat8bjjd293lm7w99fm1sbjvlud","conditionNumber":0},"__v":0}
{"_id":{"$oid":"5c4753b142c271000439cfc9"},"data":{"responseType":"start","participantID":"fdntk05l0lmyab3dfd2pr1opzaamelhh","conditionNumber":0},"__v":0}
{"_id":{"$oid":"5c4753ba42c271000439cfca"},"data":{"responseType":"start","participantID":"zpm5sd1s70nb2ugve5ygps8q6yecew2r","conditionNumber":1},"__v":0}
{"_id":{"$oid":"5c4753c142c271000439cfcb"},"data":{"responseType":"start","participantID":"gw29cugk0lrs7d9r7yjsxvr1pb452v2k","conditionNumber":1},"__v":0}
{"_id":{"$oid":"5c4753ca42c271000439cfcc"},"data":[{"rt":6087,"responses":"{\"Q0\":\" I consent to participate\"}","trial_type":"survey-multi-choice","trial_index":0,"time_elapsed":6095,"internal_node_id":"0.0-0.0","responseType":"finish","participantID":"qfvftzaoa9qmz0j90p9gfunrvq4pzlkm","conditionNumber":1},{"trial_type":"call-function","trial_index":1,"time_elapsed":6099,"internal_node_id":"0.0-1.0","responseType":"finish","participantID":"qfvftzaoa9qmz0j90p9gfunrvq4pzlkm","conditionNumber":1},{"view_history":"[{\"page_index\":0,\"viewing_time\":7304}]","rt":7305,"trial_type":"instructions","trial_index":2,"time_elapsed":13404,"internal_node_id":"0.0-2.0","responseType":"finish","participantID":"qfvftzaoa9qmz0j90p9gfunrvq4pzlkm","conditionNumber":1},{"rt":11535,"stimulus":"\u003cblockquote\u003e\n  \u003ch1 id=\"puzzle\"\u003ePuzzle\u003c/h1\u003e\n  \u003cp\u003eSherlock Holmes was in his house reading when suddenly a rock came crashing through the window. Holmes just got up in time to see three neighborhood kids who were brothers running away. Their names were John Smith, Mark Smith, and Paul Smith. \u003cbr\u003e\u003cbr\u003e\u003cbr\u003e\u003cbr\u003e\u003cbr\u003e\u003cbr\u003e\u003cbr\u003e\u003cbr\u003e Press 'n' once you are ready to read the next part of the puzzle.\u003c/p\u003e\n\u003c/blockquote\u003e","key_press":78,"trial_type":"html-keyboard-response","trial_index":3,"time_elapsed":24939,"internal_node_id":"0.0-3.0-0.0","responseType":"finish","participantID":"qfvftzaoa9qmz0j90p9gfunrvq4pzlkm","conditionNumber":1},{"rt":15163,"stimulus":"\u003cblockquote\u003e\n  \u003ch1 id=\"puzzle\"\u003ePuzzle\u003c/h1\u003e\n  \u003cp\u003eSherlock Holmes was in his house reading when suddenly a rock came crashing through the window. Holmes just got up in time to see three neighborhood kids who were brothers running away. Their names were John Smith, Mark Smith, and Paul Smith.\u003c/p\u003e\n  \u003cp\u003eThe next day Holmes got a note on his door that read: \"? Smith. He broke your window.\" \u003cbr\u003e\u003cbr\u003e\u003cbr\u003e\u003cbr\u003e\u003cbr\u003e\u003cbr\u003e Press 'n' once you are ready to read the next part of the puzzle.\u003c/p\u003e\n\u003c/blockquote\u003e","key_press":78,"trial_type":"html-keyboard-response","trial_index":4,"time_elapsed":40103,"internal_node_id":"0.0-3.0-1.0","responseType":"finish","participantID":"qfvftzaoa9qmz0j90p9gfunrvq4pzlkm","conditionNumber":1},{"rt":null,"stimulus":"\u003cblockquote\u003e\n  \u003ch1 id=\"puzzle\"\u003ePuzzle\u003c/h1\u003e\n  \u003cp\u003eSherlock Holmes was in his house reading when suddenly a rock came crashing through the window. Holmes just got up in time to see three neighborhood kids who were brothers running away. Their names were John Smith, Mark Smith, and Paul Smith.\u003c/p\u003e\n  \u003cp\u003eThe next day Holmes got a note on his door that read: \"? Smith. He broke your window.\" \u003c/p\u003e\n  \u003ch2 id=\"whichofthethreesmithbrothersshouldsherlockquestionabouttheincident\"\u003e\u003cem\u003eWhich of the three Smith brothers should Sherlock question about the incident?\u003c/em\u003e\u003c/h2\u003e\n  \u003cp\u003e\u003cbr\u003e\u003cbr\u003e\u003cbr\u003e\u003cbr\u003e\u003c/p\u003e\n\u003c/blockquote\u003e","key_press":null,"trial_type":"html-keyboard-response","trial_index":5,"time_elapsed":45103,"internal_node_id":"0.0-3.0-2.0","responseType":"finish","participantID":"qfvftzaoa9qmz0j90p9gfunrvq4pzlkm","conditionNumber":1},{"rt":null,"stimulus":"\u003cblockquote\u003e\n  \u003ch1 id=\"puzzle\"\u003ePuzzle\u003c/h1\u003e\n  \u003cp\u003eSherlock Holmes was in his house reading when suddenly a rock came crashing through the window. Holmes just got up in time to see three neighborhood kids who were brothers running away. Their names were John Smith, Mark Smith, and Paul Smith.\u003c/p\u003e\n  \u003cp\u003eThe next day Holmes got a note on his door that read: \"? Smith. He broke your window.\" \u003c/p\u003e\n  \u003ch2 id=\"whichofthethreesmithbrothersshouldsherlockquestionabouttheincident\"\u003e\u003cem\u003eWhich of the three Smith brothers should Sherlock question about the incident?\u003c/em\u003e\u003c/h2\u003e\n  \u003cp\u003e.\u003cbr\u003e .\u003cbr\u003e We will now give you \u003cstrong\u003e20 seconds\u003c/strong\u003e to think about the answer to this problem. \u003c/p\u003e\n  \u003ch2 id=\"after20secondswewillshowyouahinttohelpsolvetheproblem\"\u003eAfter \u003cstrong\u003e20 seconds\u003c/strong\u003e, we will show you a \u003cstrong\u003ehint\u003c/strong\u003e to help solve the problem.\u003c/h2\u003e\n\u003c/blockquote\u003e","key_press":null,"trial_type":"html-keyboard-response","trial_index":6,"time_elapsed":105106,"internal_node_id":"0.0-3.0-3.0","responseType":"finish","participantID":"qfvftzaoa9qmz0j90p9gfunrvq4pzlkm","conditionNumber":1},{"rt":3840,"stimulus":"\u003cblockquote\u003e\n  \u003cp\u003e\u003cstrong\u003eHINT:\u003c/strong\u003e What is the english translation of the symbol \"?\"\u003c/p\u003e\n\u003c/blockquote\u003e","key_press":78,"trial_type":"html-keyboard-response","trial_index":7,"time_elapsed":108947,"internal_node_id":"0.0-3.0-4.0","responseType":"finish","participantID":"qfvftzaoa9qmz0j90p9gfunrvq4pzlkm","conditionNumber":1},{"rt":9076,"response":"0","stimulus":"\u003cp\u003eAn Aha! moment is when the solution suddenly dawns on you and everything is clear immediately. In a flash. As an example, imagine a light bulb that is switched on all at once in contrast to slowly turning up the lights.\u003c/p\u003e\u003cp\u003ePlease rate your experience of an Aha! moment upon getting the solution to this puzzle. \u003c/p\u003e","trial_type":"html-slider-response","trial_index":8,"time_elapsed":118025,"internal_node_id":"0.0-4.0-0.0","responseType":"finish","participantID":"qfvftzaoa9qmz0j90p9gfunrvq4pzlkm","conditionNumber":1},{"rt":3693,"response":"50","stimulus":"Please rate how you felt once you understood the solution to the riddle.","trial_type":"html-slider-response","trial_index":9,"time_elapsed":121719,"internal_node_id":"0.0-4.0-0.1","responseType":"finish","participantID":"qfvftzaoa9qmz0j90p9gfunrvq4pzlkm","conditionNumber":1}],"__v":0}
{"_id":{"$oid":"5c4753cc42c271000439cfcd"},"data":[{"rt":4210,"responses":"{\"Q0\":\" I consent to participate\"}","trial_type":"survey-multi-choice","trial_index":0,"time_elapsed":4233,"internal_node_id":"0.0-0.0","responseType":"finish","participantID":"ac2xfjq4f69olmzqk792t3lbsstrx2fb","conditionNumber":0},{"trial_type":"call-function","trial_index":1,"time_elapsed":4240,"internal_node_id":"0.0-1.0","responseType":"finish","participantID":"ac2xfjq4f69olmzqk792t3lbsstrx2fb","conditionNumber":0},{"view_history":"[{\"page_index\":0,\"viewing_time\":12176}]","rt":12177,"trial_type":"instructions","trial_index":2,"time_elapsed":16417,"internal_node_id":"0.0-2.0","responseType":"finish","participantID":"ac2xfjq4f69olmzqk792t3lbsstrx2fb","conditionNumber":0},{"rt":15376,"stimulus":"\u003cblockquote\u003e\n  \u003ch1 id=\"puzzle\"\u003ePuzzle\u003c/h1\u003e\n  \u003cp\u003eSherlock Holmes was in his house reading when suddenly a rock came crashing through the window. Holmes just got up in time to see three neighborhood kids who were brothers running away. Their names were John Smith, Mark Smith, and Paul Smith. \u003cbr\u003e\u003cbr\u003e\u003cbr\u003e\u003cbr\u003e\u003cbr\u003e\u003cbr\u003e\u003cbr\u003e\u003cbr\u003e Press 'n' once you are ready to read the next part of the puzzle.\u003c/p\u003e\n\u003c/blockquote\u003e","key_press":78,"trial_type":"html-keyboard-response","trial_index":3,"time_elapsed":31794,"internal_node_id":"0.0-3.0-0.0","responseType":"finish","participantID":"ac2xfjq4f69olmzqk792t3lbsstrx2fb","conditionNumber":0},{"rt":6550,"stimulus":"\u003cblockquote\u003e\n  \u003ch1 id=\"puzzle\"\u003ePuzzle\u003c/h1\u003e\n  \u003cp\u003eSherlock Holmes was in his house reading when suddenly a rock came crashing through the window. Holmes just got up in time to see three neighborhood kids who were brothers running away. Their names were John Smith, Mark Smith, and Paul Smith.\u003c/p\u003e\n  \u003cp\u003eThe next day Holmes got a note on his door that read: \"? Smith. He broke your window.\" \u003cbr\u003e\u003cbr\u003e\u003cbr\u003e\u003cbr\u003e\u003cbr\u003e\u003cbr\u003e Press 'n' once you are ready to read the next part of the puzzle.\u003c/p\u003e\n\u003c/blockquote\u003e","key_press":78,"trial_type":"html-keyboard-response","trial_index":4,"time_elapsed":38344,"internal_node_id":"0.0-3.0-1.0","responseType":"finish","participantID":"ac2xfjq4f69olmzqk792t3lbsstrx2fb","conditionNumber":0},{"rt":null,"stimulus":"\u003cblockquote\u003e\n  \u003ch1 id=\"puzzle\"\u003ePuzzle\u003c/h1\u003e\n  \u003cp\u003eSherlock Holmes was in his house reading when suddenly a rock came crashing through the window. Holmes just got up in time to see three neighborhood kids who were brothers running away. Their names were John Smith, Mark Smith, and Paul Smith.\u003c/p\u003e\n  \u003cp\u003eThe next day Holmes got a note on his door that read: \"? Smith. He broke your window.\" \u003c/p\u003e\n  \u003ch2 id=\"whichofthethreesmithbrothersshouldsherlockquestionabouttheincident\"\u003e\u003cem\u003eWhich of the three Smith brothers should Sherlock question about the incident?\u003c/em\u003e\u003c/h2\u003e\n  \u003cp\u003e\u003cbr\u003e\u003cbr\u003e\u003cbr\u003e\u003cbr\u003e\u003c/p\u003e\n\u003c/blockquote\u003e","key_press":null,"trial_type":"html-keyboard-response","trial_index":5,"time_elapsed":43345,"internal_node_id":"0.0-3.0-2.0","responseType":"finish","participantID":"ac2xfjq4f69olmzqk792t3lbsstrx2fb","conditionNumber":0},{"rt":null,"stimulus":"\u003cblockquote\u003e\n  \u003ch1 id=\"puzzle\"\u003ePuzzle\u003c/h1\u003e\n  \u003cp\u003eSherlock Holmes was in his house reading when suddenly a rock came crashing through the window. Holmes just got up in time to see three neighborhood kids who were brothers running away. Their names were John Smith, Mark Smith, and Paul Smith.\u003c/p\u003e\n  \u003cp\u003eThe next day Holmes got a note on his door that read: \"? Smith. He broke your window.\" \u003c/p\u003e\n  \u003ch2 id=\"whichofthethreesmithbrothersshouldsherlockquestionabouttheincident\"\u003e\u003cem\u003eWhich of the three Smith brothers should Sherlock question about the incident?\u003c/em\u003e\u003c/h2\u003e\n  \u003cp\u003e.\u003cbr\u003e .\u003cbr\u003e We will now give you \u003cstrong\u003e60 seconds\u003c/strong\u003e to think about the answer to this problem. \u003c/p\u003e\n  \u003ch2 id=\"after60secondswewillshowyouahinttohelpsolvetheproblem\"\u003eAfter \u003cstrong\u003e60 seconds\u003c/strong\u003e, we will show you a \u003cstrong\u003ehint\u003c/strong\u003e to help solve the problem.\u003c/h2\u003e\n\u003c/blockquote\u003e","key_press":null,"trial_type":"html-keyboard-response","trial_index":6,"time_elapsed":63345,"internal_node_id":"0.0-3.0-3.0","responseType":"finish","participantID":"ac2xfjq4f69olmzqk792t3lbsstrx2fb","conditionNumber":0},{"rt":7023,"stimulus":"\u003cblockquote\u003e\n  \u003cp\u003e\u003cstrong\u003eHINT:\u003c/strong\u003e What is the english translation of the symbol \"?\"\u003c/p\u003e\n\u003c/blockquote\u003e","key_press":78,"trial_type":"html-keyboard-response","trial_index":7,"time_elapsed":70369,"internal_node_id":"0.0-3.0-4.0","responseType":"finish","participantID":"ac2xfjq4f69olmzqk792t3lbsstrx2fb","conditionNumber":0},{"rt":7651,"response":"61","stimulus":"Please rate how you felt once you understood the solution to the riddle.","trial_type":"html-slider-response","trial_index":8,"time_elapsed":78021,"internal_node_id":"0.0-4.0-0.0","responseType":"finish","participantID":"ac2xfjq4f69olmzqk792t3lbsstrx2fb","conditionNumber":0},{"rt":11690,"response":"28","stimulus":"\u003cp\u003eAn Aha! moment is when the solution suddenly dawns on you and everything is clear immediately. In a flash. As an example, imagine a light bulb that is switched on all at once in contrast to slowly turning up the lights.\u003c/p\u003e\u003cp\u003ePlease rate your experience of an Aha! moment upon getting the solution to this puzzle. \u003c/p\u003e","trial_type":"html-slider-response","trial_index":9,"time_elapsed":89712,"internal_node_id":"0.0-4.0-0.1","responseType":"finish","participantID":"ac2xfjq4f69olmzqk792t3lbsstrx2fb","conditionNumber":0}],"__v":0}
{"_id":{"$oid":"5c4753cf42c271000439cfce"},"data":[{"rt":3945,"responses":"{\"Q0\":\" I consent to participate\"}","trial_type":"survey-multi-choice","trial_index":0,"time_elapsed":3990,"internal_node_id":"0.0-0.0","responseType":"finish","participantID":"ues7ytv0pznkkco63gkc7n7sha4pwwgo","conditionNumber":0},{"trial_type":"call-function","trial_index":1,"time_elapsed":4004,"internal_node_id":"0.0-1.0","responseType":"finish","participantID":"ues7ytv0pznkkco63gkc7n7sha4pwwgo","conditionNumber":0},{"view_history":"[{\"page_index\":0,\"viewing_time\":4702}]","rt":4703,"trial_type":"instructions","trial_index":2,"time_elapsed":8707,"internal_node_id":"0.0-2.0","responseType":"finish","participantID":"ues7ytv0pznkkco63gkc7n7sha4pwwgo","conditionNumber":0},{"rt":10649,"stimulus":"\u003cblockquote\u003e\n  \u003ch1 id=\"puzzle\"\u003ePuzzle\u003c/h1\u003e\n  \u003cp\u003eSherlock Holmes was in his house reading when suddenly a rock came crashing through the window. Holmes just got up in time to see three neighborhood kids who were brothers running away. Their names were John Smith, Mark Smith, and Paul Smith. \u003cbr\u003e\u003cbr\u003e\u003cbr\u003e\u003cbr\u003e\u003cbr\u003e\u003cbr\u003e\u003cbr\u003e\u003cbr\u003e Press 'n' once you are ready to read the next part of the puzzle.\u003c/p\u003e\n\u003c/blockquote\u003e","key_press":78,"trial_type":"html-keyboard-response","trial_index":3,"time_elapsed":19365,"internal_node_id":"0.0-3.0-0.0","responseType":"finish","participantID":"ues7ytv0pznkkco63gkc7n7sha4pwwgo","conditionNumber":0},{"rt":6228,"stimulus":"\u003cblockquote\u003e\n  \u003ch1 id=\"puzzle\"\u003ePuzzle\u003c/h1\u003e\n  \u003cp\u003eSherlock Holmes was in his house reading when suddenly a rock came crashing through the window. Holmes just got up in time to see three neighborhood kids who were brothers running away. Their names were John Smith, Mark Smith, and Paul Smith.\u003c/p\u003e\n  \u003cp\u003eThe next day Holmes got a note on his door that read: \"? Smith. He broke your window.\" \u003cbr\u003e\u003cbr\u003e\u003cbr\u003e\u003cbr\u003e\u003cbr\u003e\u003cbr\u003e Press 'n' once you are ready to read the next part of the puzzle.\u003c/p\u003e\n\u003c/blockquote\u003e","key_press":78,"trial_type":"html-keyboard-response","trial_index":4,"time_elapsed":25596,"internal_node_id":"0.0-3.0-1.0","responseType":"finish","participantID":"ues7ytv0pznkkco63gkc7n7sha4pwwgo","conditionNumber":0},{"rt":null,"stimulus":"\u003cblockquote\u003e\n  \u003ch1 id=\"puzzle\"\u003ePuzzle\u003c/h1\u003e\n  \u003cp\u003eSherlock Holmes was in his house reading when suddenly a rock came crashing through the window. Holmes just got up in time to see three neighborhood kids who were brothers running away. Their names were John Smith, Mark Smith, and Paul Smith.\u003c/p\u003e\n  \u003cp\u003eThe next day Holmes got a note on his door that read: \"? Smith. He broke your window.\" \u003c/p\u003e\n  \u003ch2 id=\"whichofthethreesmithbrothersshouldsherlockquestionabouttheincident\"\u003e\u003cem\u003eWhich of the three Smith brothers should Sherlock question about the incident?\u003c/em\u003e\u003c/h2\u003e\n  \u003cp\u003e\u003cbr\u003e\u003cbr\u003e\u003cbr\u003e\u003cbr\u003e\u003c/p\u003e\n\u003c/blockquote\u003e","key_press":null,"trial_type":"html-keyboard-response","trial_index":5,"time_elapsed":30629,"internal_node_id":"0.0-3.0-2.0","responseType":"finish","participantID":"ues7ytv0pznkkco63gkc7n7sha4pwwgo","conditionNumber":0},{"rt":null,"stimulus":"\u003cblockquote\u003e\n  \u003ch1 id=\"puzzle\"\u003ePuzzle\u003c/h1\u003e\n  \u003cp\u003eSherlock Holmes was in his house reading when suddenly a rock came crashing through the window. Holmes just got up in time to see three neighborhood kids who were brothers running away. Their names were John Smith, Mark Smith, and Paul Smith.\u003c/p\u003e\n  \u003cp\u003eThe next day Holmes got a note on his door that read: \"? Smith. He broke your window.\" \u003c/p\u003e\n  \u003ch2 id=\"whichofthethreesmithbrothersshouldsherlockquestionabouttheincident\"\u003e\u003cem\u003eWhich of the three Smith brothers should Sherlock question about the incident?\u003c/em\u003e\u003c/h2\u003e\n  \u003cp\u003e.\u003cbr\u003e .\u003cbr\u003e We will now give you \u003cstrong\u003e60 seconds\u003c/strong\u003e to think about the answer to this problem. \u003c/p\u003e\n  \u003ch2 id=\"after60secondswewillshowyouahinttohelpsolvetheproblem\"\u003eAfter \u003cstrong\u003e60 seconds\u003c/strong\u003e, we will show you a \u003cstrong\u003ehint\u003c/strong\u003e to help solve the problem.\u003c/h2\u003e\n\u003c/blockquote\u003e","key_press":null,"trial_type":"html-keyboard-response","trial_index":6,"time_elapsed":50638,"internal_node_id":"0.0-3.0-3.0","responseType":"finish","participantID":"ues7ytv0pznkkco63gkc7n7sha4pwwgo","conditionNumber":0},{"rt":8683,"stimulus":"\u003cblockquote\u003e\n  \u003cp\u003e\u003cstrong\u003eHINT:\u003c/strong\u003e What is the english translation of the symbol \"?\"\u003c/p\u003e\n\u003c/blockquote\u003e","key_press":78,"trial_type":"html-keyboard-response","trial_index":7,"time_elapsed":59331,"internal_node_id":"0.0-3.0-4.0","responseType":"finish","participantID":"ues7ytv0pznkkco63gkc7n7sha4pwwgo","conditionNumber":0},{"rt":3833,"response":"0","stimulus":"Please rate how you felt once you understood the solution to the riddle.","trial_type":"html-slider-response","trial_index":8,"time_elapsed":63171,"internal_node_id":"0.0-4.0-0.0","responseType":"finish","participantID":"ues7ytv0pznkkco63gkc7n7sha4pwwgo","conditionNumber":0},{"rt":2799,"response":"0","stimulus":"\u003cp\u003eAn Aha! moment is when the solution suddenly dawns on you and everything is clear immediately. In a flash. As an example, imagine a light bulb that is switched on all at once in contrast to slowly turning up the lights.\u003c/p\u003e\u003cp\u003ePlease rate your experience of an Aha! moment upon getting the solution to this puzzle. \u003c/p\u003e","trial_type":"html-slider-response","trial_index":9,"time_elapsed":65976,"internal_node_id":"0.0-4.0-0.1","responseType":"finish","participantID":"ues7ytv0pznkkco63gkc7n7sha4pwwgo","conditionNumber":0}],"__v":0}
{"_id":{"$oid":"5c4753d042c271000439cfcf"},"data":{"responseType":"start","participantID":"156x0y1b38l36f9bppq2zxz5o1vuptzz","conditionNumber":0},"__v":0}
{"_id":{"$oid":"5c4753d042c271000439cfd0"},"data":[{"rt":8304,"responses":"{\"Q0\":\" I consent to participate\"}","trial_type":"survey-multi-choice","trial_index":0,"time_elapsed":8344,"internal_node_id":"0.0-0.0","responseType":"finish","participantID":"rxqzqdx2k6pa8m0vb7phowwommcdtfw1","conditionNumber":0},{"trial_type":"call-function","trial_index":1,"time_elapsed":8358,"internal_node_id":"0.0-1.0","responseType":"finish","participantID":"rxqzqdx2k6pa8m0vb7phowwommcdtfw1","conditionNumber":0},{"view_history":"[{\"page_index\":0,\"viewing_time\":7443}]","rt":7444,"trial_type":"instructions","trial_index":2,"time_elapsed":15805,"internal_node_id":"0.0-2.0","responseType":"finish","participantID":"rxqzqdx2k6pa8m0vb7phowwommcdtfw1","conditionNumber":0},{"rt":18791,"stimulus":"\u003cblockquote\u003e\n  \u003ch1 id=\"puzzle\"\u003ePuzzle\u003c/h1\u003e\n  \u003cp\u003eSherlock Holmes was in his house reading when suddenly a rock came crashing through the window. Holmes just got up in time to see three neighborhood kids who were brothers running away. Their names were John Smith, Mark Smith, and Paul Smith. \u003cbr\u003e\u003cbr\u003e\u003cbr\u003e\u003cbr\u003e\u003cbr\u003e\u003cbr\u003e\u003cbr\u003e\u003cbr\u003e Press 'n' once you are ready to read the next part of the puzzle.\u003c/p\u003e\n\u003c/blockquote\u003e","key_press":78,"trial_type":"html-keyboard-response","trial_index":3,"time_elapsed":34599,"internal_node_id":"0.0-3.0-0.0","responseType":"finish","participantID":"rxqzqdx2k6pa8m0vb7phowwommcdtfw1","conditionNumber":0},{"rt":5744,"stimulus":"\u003cblockquote\u003e\n  \u003ch1 id=\"puzzle\"\u003ePuzzle\u003c/h1\u003e\n  \u003cp\u003eSherlock Holmes was in his house reading when suddenly a rock came crashing through the window. Holmes just got up in time to see three neighborhood kids who were brothers running away. Their names were John Smith, Mark Smith, and Paul Smith.\u003c/p\u003e\n  \u003cp\u003eThe next day Holmes got a note on his door that read: \"? Smith. He broke your window.\" \u003cbr\u003e\u003cbr\u003e\u003cbr\u003e\u003cbr\u003e\u003cbr\u003e\u003cbr\u003e Press 'n' once you are ready to read the next part of the puzzle.\u003c/p\u003e\n\u003c/blockquote\u003e","key_press":78,"trial_type":"html-keyboard-response","trial_index":4,"time_elapsed":40344,"internal_node_id":"0.0-3.0-1.0","responseType":"finish","participantID":"rxqzqdx2k6pa8m0vb7phowwommcdtfw1","conditionNumber":0},{"rt":null,"stimulus":"\u003cblockquote\u003e\n  \u003ch1 id=\"puzzle\"\u003ePuzzle\u003c/h1\u003e\n  \u003cp\u003eSherlock Holmes was in his house reading when suddenly a rock came crashing through the window. Holmes just got up in time to see three neighborhood kids who were brothers running away. Their names were John Smith, Mark Smith, and Paul Smith.\u003c/p\u003e\n  \u003cp\u003eThe next day Holmes got a note on his door that read: \"? Smith. He broke your window.\" \u003c/p\u003e\n  \u003ch2 id=\"whichofthethreesmithbrothersshouldsherlockquestionabouttheincident\"\u003e\u003cem\u003eWhich of the three Smith brothers should Sherlock question about the incident?\u003c/em\u003e\u003c/h2\u003e\n  \u003cp\u003e\u003cbr\u003e\u003cbr\u003e\u003cbr\u003e\u003cbr\u003e\u003c/p\u003e\n\u003c/blockquote\u003e","key_press":null,"trial_type":"html-keyboard-response","trial_index":5,"time_elapsed":45359,"internal_node_id":"0.0-3.0-2.0","responseType":"finish","participantID":"rxqzqdx2k6pa8m0vb7phowwommcdtfw1","conditionNumber":0},{"rt":null,"stimulus":"\u003cblockquote\u003e\n  \u003ch1 id=\"puzzle\"\u003ePuzzle\u003c/h1\u003e\n  \u003cp\u003eSherlock Holmes was in his house reading when suddenly a rock came crashing through the window. Holmes just got up in time to see three neighborhood kids who were brothers running away. Their names were John Smith, Mark Smith, and Paul Smith.\u003c/p\u003e\n  \u003cp\u003eThe next day Holmes got a note on his door that read: \"? Smith. He broke your window.\" \u003c/p\u003e\n  \u003ch2 id=\"whichofthethreesmithbrothersshouldsherlockquestionabouttheincident\"\u003e\u003cem\u003eWhich of the three Smith brothers should Sherlock question about the incident?\u003c/em\u003e\u003c/h2\u003e\n  \u003cp\u003e.\u003cbr\u003e .\u003cbr\u003e We will now give you \u003cstrong\u003e60 seconds\u003c/strong\u003e to think about the answer to this problem. \u003c/p\u003e\n  \u003ch2 id=\"after60secondswewillshowyouahinttohelpsolvetheproblem\"\u003eAfter \u003cstrong\u003e60 seconds\u003c/strong\u003e, we will show you a \u003cstrong\u003ehint\u003c/strong\u003e to help solve the problem.\u003c/h2\u003e\n\u003c/blockquote\u003e","key_press":null,"trial_type":"html-keyboard-response","trial_index":6,"time_elapsed":65362,"internal_node_id":"0.0-3.0-3.0","responseType":"finish","participantID":"rxqzqdx2k6pa8m0vb7phowwommcdtfw1","conditionNumber":0},{"rt":3829,"stimulus":"\u003cblockquote\u003e\n  \u003cp\u003e\u003cstrong\u003eHINT:\u003c/strong\u003e What is the english translation of the symbol \"?\"\u003c/p\u003e\n\u003c/blockquote\u003e","key_press":78,"trial_type":"html-keyboard-response","trial_index":7,"time_elapsed":69192,"internal_node_id":"0.0-3.0-4.0","responseType":"finish","participantID":"rxqzqdx2k6pa8m0vb7phowwommcdtfw1","conditionNumber":0},{"rt":9170,"response":"11","stimulus":"\u003cp\u003eAn Aha! moment is when the solution suddenly dawns on you and everything is clear immediately. In a flash. As an example, imagine a light bulb that is switched on all at once in contrast to slowly turning up the lights.\u003c/p\u003e\u003cp\u003ePlease rate your experience of an Aha! moment upon getting the solution to this puzzle. \u003c/p\u003e","trial_type":"html-slider-response","trial_index":8,"time_elapsed":78368,"internal_node_id":"0.0-4.0-0.0","responseType":"finish","participantID":"rxqzqdx2k6pa8m0vb7phowwommcdtfw1","conditionNumber":0},{"rt":2349,"response":"50","stimulus":"Please rate how you felt once you understood the solution to the riddle.","trial_type":"html-slider-response","trial_index":9,"time_elapsed":80722,"internal_node_id":"0.0-4.0-0.1","responseType":"finish","participantID":"rxqzqdx2k6pa8m0vb7phowwommcdtfw1","conditionNumber":0}],"__v":0}
{"_id":{"$oid":"5c4753d442c271000439cfd1"},"data":{"responseType":"start","participantID":"lj4maldw95ajdqdon7vu354vz6zq5x9w","conditionNumber":0},"__v":0}
{"_id":{"$oid":"5c4753d942c271000439cfd2"},"data":{"responseType":"start","participantID":"z979gehzc35rgsw3y1pf1jr3gqo9kunz","conditionNumber":1},"__v":0}
{"_id":{"$oid":"5c4753dd42c271000439cfd3"},"data":{"responseType":"start","participantID":"c9ecodpdhc4jmgylpum8d52b2se4wl4o","conditionNumber":0},"__v":0}
{"_id":{"$oid":"5c4753dd42c271000439cfd4"},"data":[{"rt":9175,"responses":"{\"Q0\":\" I consent to participate\"}","trial_type":"survey-multi-choice","trial_index":0,"time_elapsed":9183,"internal_node_id":"0.0-0.0","responseType":"finish","participantID":"5gvm1t4mhyr2luyd3oas7m8knnep5e9p","conditionNumber":0},{"trial_type":"call-function","trial_index":1,"time_elapsed":9188,"internal_node_id":"0.0-1.0","responseType":"finish","participantID":"5gvm1t4mhyr2luyd3oas7m8knnep5e9p","conditionNumber":0},{"view_history":"[{\"page_index\":0,\"viewing_time\":1427}]","rt":1428,"trial_type":"instructions","trial_index":2,"time_elapsed":10617,"internal_node_id":"0.0-2.0","responseType":"finish","participantID":"5gvm1t4mhyr2luyd3oas7m8knnep5e9p","conditionNumber":0},{"rt":8348,"stimulus":"\u003cblockquote\u003e\n  \u003ch1 id=\"puzzle\"\u003ePuzzle\u003c/h1\u003e\n  \u003cp\u003eSherlock Holmes was in his house reading when suddenly a rock came crashing through the window. Holmes just got up in time to see three neighborhood kids who were brothers running away. Their names were John Smith, Mark Smith, and Paul Smith. \u003cbr\u003e\u003cbr\u003e\u003cbr\u003e\u003cbr\u003e\u003cbr\u003e\u003cbr\u003e\u003cbr\u003e\u003cbr\u003e Press 'n' once you are ready to read the next part of the puzzle.\u003c/p\u003e\n\u003c/blockquote\u003e","key_press":78,"trial_type":"html-keyboard-response","trial_index":3,"time_elapsed":18968,"internal_node_id":"0.0-3.0-0.0","responseType":"finish","participantID":"5gvm1t4mhyr2luyd3oas7m8knnep5e9p","conditionNumber":0},{"rt":1228,"stimulus":"\u003cblockquote\u003e\n  \u003ch1 id=\"puzzle\"\u003ePuzzle\u003c/h1\u003e\n  \u003cp\u003eSherlock Holmes was in his house reading when suddenly a rock came crashing through the window. Holmes just got up in time to see three neighborhood kids who were brothers running away. Their names were John Smith, Mark Smith, and Paul Smith.\u003c/p\u003e\n  \u003cp\u003eThe next day Holmes got a note on his door that read: \"? Smith. He broke your window.\" \u003cbr\u003e\u003cbr\u003e\u003cbr\u003e\u003cbr\u003e\u003cbr\u003e\u003cbr\u003e Press 'n' once you are ready to read the next part of the puzzle.\u003c/p\u003e\n\u003c/blockquote\u003e","key_press":78,"trial_type":"html-keyboard-response","trial_index":4,"time_elapsed":20197,"internal_node_id":"0.0-3.0-1.0","responseType":"finish","participantID":"5gvm1t4mhyr2luyd3oas7m8knnep5e9p","conditionNumber":0},{"rt":null,"stimulus":"\u003cblockquote\u003e\n  \u003ch1 id=\"puzzle\"\u003ePuzzle\u003c/h1\u003e\n  \u003cp\u003eSherlock Holmes was in his house reading when suddenly a rock came crashing through the window. Holmes just got up in time to see three neighborhood kids who were brothers running away. Their names were John Smith, Mark Smith, and Paul Smith.\u003c/p\u003e\n  \u003cp\u003eThe next day Holmes got a note on his door that read: \"? Smith. He broke your window.\" \u003c/p\u003e\n  \u003ch2 id=\"whichofthethreesmithbrothersshouldsherlockquestionabouttheincident\"\u003e\u003cem\u003eWhich of the three Smith brothers should Sherlock question about the incident?\u003c/em\u003e\u003c/h2\u003e\n  \u003cp\u003e\u003cbr\u003e\u003cbr\u003e\u003cbr\u003e\u003cbr\u003e\u003c/p\u003e\n\u003c/blockquote\u003e","key_press":null,"trial_type":"html-keyboard-response","trial_index":5,"time_elapsed":25200,"internal_node_id":"0.0-3.0-2.0","responseType":"finish","participantID":"5gvm1t4mhyr2luyd3oas7m8knnep5e9p","conditionNumber":0},{"rt":null,"stimulus":"\u003cblockquote\u003e\n  \u003ch1 id=\"puzzle\"\u003ePuzzle\u003c/h1\u003e\n  \u003cp\u003eSherlock Holmes was in his house reading when suddenly a rock came crashing through the window. Holmes just got up in time to see three neighborhood kids who were brothers running away. Their names were John Smith, Mark Smith, and Paul Smith.\u003c/p\u003e\n  \u003cp\u003eThe next day Holmes got a note on his door that read: \"? Smith. He broke your window.\" \u003c/p\u003e\n  \u003ch2 id=\"whichofthethreesmithbrothersshouldsherlockquestionabouttheincident\"\u003e\u003cem\u003eWhich of the three Smith brothers should Sherlock question about the incident?\u003c/em\u003e\u003c/h2\u003e\n  \u003cp\u003e.\u003cbr\u003e .\u003cbr\u003e We will now give you \u003cstrong\u003e60 seconds\u003c/strong\u003e to think about the answer to this problem. \u003c/p\u003e\n  \u003ch2 id=\"after60secondswewillshowyouahinttohelpsolvetheproblem\"\u003eAfter \u003cstrong\u003e60 seconds\u003c/strong\u003e, we will show you a \u003cstrong\u003ehint\u003c/strong\u003e to help solve the problem.\u003c/h2\u003e\n\u003c/blockquote\u003e","key_press":null,"trial_type":"html-keyboard-response","trial_index":6,"time_elapsed":45204,"internal_node_id":"0.0-3.0-3.0","responseType":"finish","participantID":"5gvm1t4mhyr2luyd3oas7m8knnep5e9p","conditionNumber":0},{"rt":4698,"stimulus":"\u003cblockquote\u003e\n  \u003cp\u003e\u003cstrong\u003eHINT:\u003c/strong\u003e What is the english translation of the symbol \"?\"\u003c/p\u003e\n\u003c/blockquote\u003e","key_press":78,"trial_type":"html-keyboard-response","trial_index":7,"time_elapsed":49903,"internal_node_id":"0.0-3.0-4.0","responseType":"finish","participantID":"5gvm1t4mhyr2luyd3oas7m8knnep5e9p","conditionNumber":0},{"rt":5822,"response":"90","stimulus":"\u003cp\u003eAn Aha! moment is when the solution suddenly dawns on you and everything is clear immediately. In a flash. As an example, imagine a light bulb that is switched on all at once in contrast to slowly turning up the lights.\u003c/p\u003e\u003cp\u003ePlease rate your experience of an Aha! moment upon getting the solution to this puzzle. \u003c/p\u003e","trial_type":"html-slider-response","trial_index":8,"time_elapsed":55728,"internal_node_id":"0.0-4.0-0.0","responseType":"finish","participantID":"5gvm1t4mhyr2luyd3oas7m8knnep5e9p","conditionNumber":0},{"rt":3242,"response":"12","stimulus":"Please rate how you felt once you understood the solution to the riddle.","trial_type":"html-slider-response","trial_index":9,"time_elapsed":58972,"internal_node_id":"0.0-4.0-0.1","responseType":"finish","participantID":"5gvm1t4mhyr2luyd3oas7m8knnep5e9p","conditionNumber":0}],"__v":0}
{"_id":{"$oid":"5c4753ec42c271000439cfd5"},"data":{"responseType":"start","participantID":"uale30ocnh7vl35fwld6jvqujvp0jqso","conditionNumber":0},"__v":0}
{"_id":{"$oid":"5c4753f042c271000439cfd6"},"data":[{"rt":3973,"responses":"{\"Q0\":\" I consent to participate\"}","trial_type":"survey-multi-choice","trial_index":0,"time_elapsed":3978,"internal_node_id":"0.0-0.0","responseType":"finish","participantID":"r0mfozfj2jtk57zbaotrfakyurtkn7ek","conditionNumber":1},{"trial_type":"call-function","trial_index":1,"time_elapsed":3982,"internal_node_id":"0.0-1.0","responseType":"finish","participantID":"r0mfozfj2jtk57zbaotrfakyurtkn7ek","conditionNumber":1},{"view_history":"[{\"page_index\":0,\"viewing_time\":1147}]","rt":1147,"trial_type":"instructions","trial_index":2,"time_elapsed":5129,"internal_node_id":"0.0-2.0","responseType":"finish","participantID":"r0mfozfj2jtk57zbaotrfakyurtkn7ek","conditionNumber":1},{"rt":19513,"stimulus":"\u003cblockquote\u003e\n  \u003ch1 id=\"puzzle\"\u003ePuzzle\u003c/h1\u003e\n  \u003cp\u003eSherlock Holmes was in his house reading when suddenly a rock came crashing through the window. Holmes just got up in time to see three neighborhood kids who were brothers running away. Their names were John Smith, Mark Smith, and Paul Smith. \u003cbr\u003e\u003cbr\u003e\u003cbr\u003e\u003cbr\u003e\u003cbr\u003e\u003cbr\u003e\u003cbr\u003e\u003cbr\u003e Press 'n' once you are ready to read the next part of the puzzle.\u003c/p\u003e\n\u003c/blockquote\u003e","key_press":78,"trial_type":"html-keyboard-response","trial_index":3,"time_elapsed":24644,"internal_node_id":"0.0-3.0-0.0","responseType":"finish","participantID":"r0mfozfj2jtk57zbaotrfakyurtkn7ek","conditionNumber":1},{"rt":6521,"stimulus":"\u003cblockquote\u003e\n  \u003ch1 id=\"puzzle\"\u003ePuzzle\u003c/h1\u003e\n  \u003cp\u003eSherlock Holmes was in his house reading when suddenly a rock came crashing through the window. Holmes just got up in time to see three neighborhood kids who were brothers running away. Their names were John Smith, Mark Smith, and Paul Smith.\u003c/p\u003e\n  \u003cp\u003eThe next day Holmes got a note on his door that read: \"? Smith. He broke your window.\" \u003cbr\u003e\u003cbr\u003e\u003cbr\u003e\u003cbr\u003e\u003cbr\u003e\u003cbr\u003e Press 'n' once you are ready to read the next part of the puzzle.\u003c/p\u003e\n\u003c/blockquote\u003e","key_press":78,"trial_type":"html-keyboard-response","trial_index":4,"time_elapsed":31165,"internal_node_id":"0.0-3.0-1.0","responseType":"finish","participantID":"r0mfozfj2jtk57zbaotrfakyurtkn7ek","conditionNumber":1},{"rt":null,"stimulus":"\u003cblockquote\u003e\n  \u003ch1 id=\"puzzle\"\u003ePuzzle\u003c/h1\u003e\n  \u003cp\u003eSherlock Holmes was in his house reading when suddenly a rock came crashing through the window. Holmes just got up in time to see three neighborhood kids who were brothers running away. Their names were John Smith, Mark Smith, and Paul Smith.\u003c/p\u003e\n  \u003cp\u003eThe next day Holmes got a note on his door that read: \"? Smith. He broke your window.\" \u003c/p\u003e\n  \u003ch2 id=\"whichofthethreesmithbrothersshouldsherlockquestionabouttheincident\"\u003e\u003cem\u003eWhich of the three Smith brothers should Sherlock question about the incident?\u003c/em\u003e\u003c/h2\u003e\n  \u003cp\u003e\u003cbr\u003e\u003cbr\u003e\u003cbr\u003e\u003cbr\u003e\u003c/p\u003e\n\u003c/blockquote\u003e","key_press":null,"trial_type":"html-keyboard-response","trial_index":5,"time_elapsed":36166,"internal_node_id":"0.0-3.0-2.0","responseType":"finish","participantID":"r0mfozfj2jtk57zbaotrfakyurtkn7ek","conditionNumber":1},{"rt":null,"stimulus":"\u003cblockquote\u003e\n  \u003ch1 id=\"puzzle\"\u003ePuzzle\u003c/h1\u003e\n  \u003cp\u003eSherlock Holmes was in his house reading when suddenly a rock came crashing through the window. Holmes just got up in time to see three neighborhood kids who were brothers running away. Their names were John Smith, Mark Smith, and Paul Smith.\u003c/p\u003e\n  \u003cp\u003eThe next day Holmes got a note on his door that read: \"? Smith. He broke your window.\" \u003c/p\u003e\n  \u003ch2 id=\"whichofthethreesmithbrothersshouldsherlockquestionabouttheincident\"\u003e\u003cem\u003eWhich of the three Smith brothers should Sherlock question about the incident?\u003c/em\u003e\u003c/h2\u003e\n  \u003cp\u003e.\u003cbr\u003e .\u003cbr\u003e We will now give you \u003cstrong\u003e20 seconds\u003c/strong\u003e to think about the answer to this problem. \u003c/p\u003e\n  \u003ch2 id=\"after20secondswewillshowyouahinttohelpsolvetheproblem\"\u003eAfter \u003cstrong\u003e20 seconds\u003c/strong\u003e, we will show you a \u003cstrong\u003ehint\u003c/strong\u003e to help solve the problem.\u003c/h2\u003e\n\u003c/blockquote\u003e","key_press":null,"trial_type":"html-keyboard-response","trial_index":6,"time_elapsed":96167,"internal_node_id":"0.0-3.0-3.0","responseType":"finish","participantID":"r0mfozfj2jtk57zbaotrfakyurtkn7ek","conditionNumber":1},{"rt":33132,"stimulus":"\u003cblockquote\u003e\n  \u003cp\u003e\u003cstrong\u003eHINT:\u003c/strong\u003e What is the english translation of the symbol \"?\"\u003c/p\u003e\n\u003c/blockquote\u003e","key_press":78,"trial_type":"html-keyboard-response","trial_index":7,"time_elapsed":129299,"internal_node_id":"0.0-3.0-4.0","responseType":"finish","participantID":"r0mfozfj2jtk57zbaotrfakyurtkn7ek","conditionNumber":1},{"rt":3651,"response":"96","stimulus":"\u003cp\u003eAn Aha! moment is when the solution suddenly dawns on you and everything is clear immediately. In a flash. As an example, imagine a light bulb that is switched on all at once in contrast to slowly turning up the lights.\u003c/p\u003e\u003cp\u003ePlease rate your experience of an Aha! moment upon getting the solution to this puzzle. \u003c/p\u003e","trial_type":"html-slider-response","trial_index":8,"time_elapsed":132953,"internal_node_id":"0.0-4.0-0.0","responseType":"finish","participantID":"r0mfozfj2jtk57zbaotrfakyurtkn7ek","conditionNumber":1},{"rt":2911,"response":"96","stimulus":"Please rate how you felt once you understood the solution to the riddle.","trial_type":"html-slider-response","trial_index":9,"time_elapsed":135865,"internal_node_id":"0.0-4.0-0.1","responseType":"finish","participantID":"r0mfozfj2jtk57zbaotrfakyurtkn7ek","conditionNumber":1}],"__v":0}
{"_id":{"$oid":"5c4753f042c271000439cfd7"},"data":{"responseType":"start","participantID":"es03s7rlwwvb9dcanesnshtbwzhlu2b6","conditionNumber":1},"__v":0}
{"_id":{"$oid":"5c4753ff42c271000439cfd8"},"data":[{"rt":9474,"responses":"{\"Q0\":\" I consent to participate\"}","trial_type":"survey-multi-choice","trial_index":0,"time_elapsed":9521,"internal_node_id":"0.0-0.0","responseType":"finish","participantID":"w8omb15m1su7ru3f2od7kma2m4x6po57","conditionNumber":1},{"trial_type":"call-function","trial_index":1,"time_elapsed":9535,"internal_node_id":"0.0-1.0","responseType":"finish","participantID":"w8omb15m1su7ru3f2od7kma2m4x6po57","conditionNumber":1},{"view_history":"[{\"page_index\":0,\"viewing_time\":8852}]","rt":8852,"trial_type":"instructions","trial_index":2,"time_elapsed":18387,"internal_node_id":"0.0-2.0","responseType":"finish","participantID":"w8omb15m1su7ru3f2od7kma2m4x6po57","conditionNumber":1},{"rt":18677,"stimulus":"\u003cblockquote\u003e\n  \u003ch1 id=\"puzzle\"\u003ePuzzle\u003c/h1\u003e\n  \u003cp\u003eSherlock Holmes was in his house reading when suddenly a rock came crashing through the window. Holmes just got up in time to see three neighborhood kids who were brothers running away. Their names were John Smith, Mark Smith, and Paul Smith. \u003cbr\u003e\u003cbr\u003e\u003cbr\u003e\u003cbr\u003e\u003cbr\u003e\u003cbr\u003e\u003cbr\u003e\u003cbr\u003e Press 'n' once you are ready to read the next part of the puzzle.\u003c/p\u003e\n\u003c/blockquote\u003e","key_press":78,"trial_type":"html-keyboard-response","trial_index":3,"time_elapsed":37067,"internal_node_id":"0.0-3.0-0.0","responseType":"finish","participantID":"w8omb15m1su7ru3f2od7kma2m4x6po57","conditionNumber":1},{"rt":20239,"stimulus":"\u003cblockquote\u003e\n  \u003ch1 id=\"puzzle\"\u003ePuzzle\u003c/h1\u003e\n  \u003cp\u003eSherlock Holmes was in his house reading when suddenly a rock came crashing through the window. Holmes just got up in time to see three neighborhood kids who were brothers running away. Their names were John Smith, Mark Smith, and Paul Smith.\u003c/p\u003e\n  \u003cp\u003eThe next day Holmes got a note on his door that read: \"? Smith. He broke your window.\" \u003cbr\u003e\u003cbr\u003e\u003cbr\u003e\u003cbr\u003e\u003cbr\u003e\u003cbr\u003e Press 'n' once you are ready to read the next part of the puzzle.\u003c/p\u003e\n\u003c/blockquote\u003e","key_press":78,"trial_type":"html-keyboard-response","trial_index":4,"time_elapsed":57307,"internal_node_id":"0.0-3.0-1.0","responseType":"finish","participantID":"w8omb15m1su7ru3f2od7kma2m4x6po57","conditionNumber":1},{"rt":null,"stimulus":"\u003cblockquote\u003e\n  \u003ch1 id=\"puzzle\"\u003ePuzzle\u003c/h1\u003e\n  \u003cp\u003eSherlock Holmes was in his house reading when suddenly a rock came crashing through the window. Holmes just got up in time to see three neighborhood kids who were brothers running away. Their names were John Smith, Mark Smith, and Paul Smith.\u003c/p\u003e\n  \u003cp\u003eThe next day Holmes got a note on his door that read: \"? Smith. He broke your window.\" \u003c/p\u003e\n  \u003ch2 id=\"whichofthethreesmithbrothersshouldsherlockquestionabouttheincident\"\u003e\u003cem\u003eWhich of the three Smith brothers should Sherlock question about the incident?\u003c/em\u003e\u003c/h2\u003e\n  \u003cp\u003e\u003cbr\u003e\u003cbr\u003e\u003cbr\u003e\u003cbr\u003e\u003c/p\u003e\n\u003c/blockquote\u003e","key_press":null,"trial_type":"html-keyboard-response","trial_index":5,"time_elapsed":62310,"internal_node_id":"0.0-3.0-2.0","responseType":"finish","participantID":"w8omb15m1su7ru3f2od7kma2m4x6po57","conditionNumber":1},{"rt":null,"stimulus":"\u003cblockquote\u003e\n  \u003ch1 id=\"puzzle\"\u003ePuzzle\u003c/h1\u003e\n  \u003cp\u003eSherlock Holmes was in his house reading when suddenly a rock came crashing through the window. Holmes just got up in time to see three neighborhood kids who were brothers running away. Their names were John Smith, Mark Smith, and Paul Smith.\u003c/p\u003e\n  \u003cp\u003eThe next day Holmes got a note on his door that read: \"? Smith. He broke your window.\" \u003c/p\u003e\n  \u003ch2 id=\"whichofthethreesmithbrothersshouldsherlockquestionabouttheincident\"\u003e\u003cem\u003eWhich of the three Smith brothers should Sherlock question about the incident?\u003c/em\u003e\u003c/h2\u003e\n  \u003cp\u003e.\u003cbr\u003e .\u003cbr\u003e We will now give you \u003cstrong\u003e20 seconds\u003c/strong\u003e to think about the answer to this problem. \u003c/p\u003e\n  \u003ch2 id=\"after20secondswewillshowyouahinttohelpsolvetheproblem\"\u003eAfter \u003cstrong\u003e20 seconds\u003c/strong\u003e, we will show you a \u003cstrong\u003ehint\u003c/strong\u003e to help solve the problem.\u003c/h2\u003e\n\u003c/blockquote\u003e","key_press":null,"trial_type":"html-keyboard-response","trial_index":6,"time_elapsed":122312,"internal_node_id":"0.0-3.0-3.0","responseType":"finish","participantID":"w8omb15m1su7ru3f2od7kma2m4x6po57","conditionNumber":1},{"rt":15773,"stimulus":"\u003cblockquote\u003e\n  \u003cp\u003e\u003cstrong\u003eHINT:\u003c/strong\u003e What is the english translation of the symbol \"?\"\u003c/p\u003e\n\u003c/blockquote\u003e","key_press":78,"trial_type":"html-keyboard-response","trial_index":7,"time_elapsed":138087,"internal_node_id":"0.0-3.0-4.0","responseType":"finish","participantID":"w8omb15m1su7ru3f2od7kma2m4x6po57","conditionNumber":1},{"rt":9838,"response":"90","stimulus":"\u003cp\u003eAn Aha! moment is when the solution suddenly dawns on you and everything is clear immediately. In a flash. As an example, imagine a light bulb that is switched on all at once in contrast to slowly turning up the lights.\u003c/p\u003e\u003cp\u003ePlease rate your experience of an Aha! moment upon getting the solution to this puzzle. \u003c/p\u003e","trial_type":"html-slider-response","trial_index":8,"time_elapsed":147929,"internal_node_id":"0.0-4.0-0.0","responseType":"finish","participantID":"w8omb15m1su7ru3f2od7kma2m4x6po57","conditionNumber":1},{"rt":7267,"response":"66","stimulus":"Please rate how you felt once you understood the solution to the riddle.","trial_type":"html-slider-response","trial_index":9,"time_elapsed":155198,"internal_node_id":"0.0-4.0-0.1","responseType":"finish","participantID":"w8omb15m1su7ru3f2od7kma2m4x6po57","conditionNumber":1}],"__v":0}
{"_id":{"$oid":"5c47540642c271000439cfd9"},"data":[{"rt":9464,"responses":"{\"Q0\":\" I consent to participate\"}","trial_type":"survey-multi-choice","trial_index":0,"time_elapsed":9469,"internal_node_id":"0.0-0.0","responseType":"finish","participantID":"fdntk05l0lmyab3dfd2pr1opzaamelhh","conditionNumber":0},{"trial_type":"call-function","trial_index":1,"time_elapsed":9471,"internal_node_id":"0.0-1.0","responseType":"finish","participantID":"fdntk05l0lmyab3dfd2pr1opzaamelhh","conditionNumber":0},{"view_history":"[{\"page_index\":0,\"viewing_time\":5300}]","rt":5301,"trial_type":"instructions","trial_index":2,"time_elapsed":14773,"internal_node_id":"0.0-2.0","responseType":"finish","participantID":"fdntk05l0lmyab3dfd2pr1opzaamelhh","conditionNumber":0},{"rt":17166,"stimulus":"\u003cblockquote\u003e\n  \u003ch1 id=\"puzzle\"\u003ePuzzle\u003c/h1\u003e\n  \u003cp\u003eSherlock Holmes was in his house reading when suddenly a rock came crashing through the window. Holmes just got up in time to see three neighborhood kids who were brothers running away. Their names were John Smith, Mark Smith, and Paul Smith. \u003cbr\u003e\u003cbr\u003e\u003cbr\u003e\u003cbr\u003e\u003cbr\u003e\u003cbr\u003e\u003cbr\u003e\u003cbr\u003e Press 'n' once you are ready to read the next part of the puzzle.\u003c/p\u003e\n\u003c/blockquote\u003e","key_press":78,"trial_type":"html-keyboard-response","trial_index":3,"time_elapsed":31939,"internal_node_id":"0.0-3.0-0.0","responseType":"finish","participantID":"fdntk05l0lmyab3dfd2pr1opzaamelhh","conditionNumber":0},{"rt":11431,"stimulus":"\u003cblockquote\u003e\n  \u003ch1 id=\"puzzle\"\u003ePuzzle\u003c/h1\u003e\n  \u003cp\u003eSherlock Holmes was in his house reading when suddenly a rock came crashing through the window. Holmes just got up in time to see three neighborhood kids who were brothers running away. Their names were John Smith, Mark Smith, and Paul Smith.\u003c/p\u003e\n  \u003cp\u003eThe next day Holmes got a note on his door that read: \"? Smith. He broke your window.\" \u003cbr\u003e\u003cbr\u003e\u003cbr\u003e\u003cbr\u003e\u003cbr\u003e\u003cbr\u003e Press 'n' once you are ready to read the next part of the puzzle.\u003c/p\u003e\n\u003c/blockquote\u003e","key_press":78,"trial_type":"html-keyboard-response","trial_index":4,"time_elapsed":43370,"internal_node_id":"0.0-3.0-1.0","responseType":"finish","participantID":"fdntk05l0lmyab3dfd2pr1opzaamelhh","conditionNumber":0},{"rt":null,"stimulus":"\u003cblockquote\u003e\n  \u003ch1 id=\"puzzle\"\u003ePuzzle\u003c/h1\u003e\n  \u003cp\u003eSherlock Holmes was in his house reading when suddenly a rock came crashing through the window. Holmes just got up in time to see three neighborhood kids who were brothers running away. Their names were John Smith, Mark Smith, and Paul Smith.\u003c/p\u003e\n  \u003cp\u003eThe next day Holmes got a note on his door that read: \"? Smith. He broke your window.\" \u003c/p\u003e\n  \u003ch2 id=\"whichofthethreesmithbrothersshouldsherlockquestionabouttheincident\"\u003e\u003cem\u003eWhich of the three Smith brothers should Sherlock question about the incident?\u003c/em\u003e\u003c/h2\u003e\n  \u003cp\u003e\u003cbr\u003e\u003cbr\u003e\u003cbr\u003e\u003cbr\u003e\u003c/p\u003e\n\u003c/blockquote\u003e","key_press":null,"trial_type":"html-keyboard-response","trial_index":5,"time_elapsed":48370,"internal_node_id":"0.0-3.0-2.0","responseType":"finish","participantID":"fdntk05l0lmyab3dfd2pr1opzaamelhh","conditionNumber":0},{"rt":null,"stimulus":"\u003cblockquote\u003e\n  \u003ch1 id=\"puzzle\"\u003ePuzzle\u003c/h1\u003e\n  \u003cp\u003eSherlock Holmes was in his house reading when suddenly a rock came crashing through the window. Holmes just got up in time to see three neighborhood kids who were brothers running away. Their names were John Smith, Mark Smith, and Paul Smith.\u003c/p\u003e\n  \u003cp\u003eThe next day Holmes got a note on his door that read: \"? Smith. He broke your window.\" \u003c/p\u003e\n  \u003ch2 id=\"whichofthethreesmithbrothersshouldsherlockquestionabouttheincident\"\u003e\u003cem\u003eWhich of the three Smith brothers should Sherlock question about the incident?\u003c/em\u003e\u003c/h2\u003e\n  \u003cp\u003e.\u003cbr\u003e .\u003cbr\u003e We will now give you \u003cstrong\u003e60 seconds\u003c/strong\u003e to think about the answer to this problem. \u003c/p\u003e\n  \u003ch2 id=\"after60secondswewillshowyouahinttohelpsolvetheproblem\"\u003eAfter \u003cstrong\u003e60 seconds\u003c/strong\u003e, we will show you a \u003cstrong\u003ehint\u003c/strong\u003e to help solve the problem.\u003c/h2\u003e\n\u003c/blockquote\u003e","key_press":null,"trial_type":"html-keyboard-response","trial_index":6,"time_elapsed":68372,"internal_node_id":"0.0-3.0-3.0","responseType":"finish","participantID":"fdntk05l0lmyab3dfd2pr1opzaamelhh","conditionNumber":0},{"rt":10174,"stimulus":"\u003cblockquote\u003e\n  \u003cp\u003e\u003cstrong\u003eHINT:\u003c/strong\u003e What is the english translation of the symbol \"?\"\u003c/p\u003e\n\u003c/blockquote\u003e","key_press":78,"trial_type":"html-keyboard-response","trial_index":7,"time_elapsed":78546,"internal_node_id":"0.0-3.0-4.0","responseType":"finish","participantID":"fdntk05l0lmyab3dfd2pr1opzaamelhh","conditionNumber":0},{"rt":3957,"response":"100","stimulus":"Please rate how you felt once you understood the solution to the riddle.","trial_type":"html-slider-response","trial_index":8,"time_elapsed":82504,"internal_node_id":"0.0-4.0-0.0","responseType":"finish","participantID":"fdntk05l0lmyab3dfd2pr1opzaamelhh","conditionNumber":0},{"rt":10967,"response":"100","stimulus":"\u003cp\u003eAn Aha! moment is when the solution suddenly dawns on you and everything is clear immediately. In a flash. As an example, imagine a light bulb that is switched on all at once in contrast to slowly turning up the lights.\u003c/p\u003e\u003cp\u003ePlease rate your experience of an Aha! moment upon getting the solution to this puzzle. \u003c/p\u003e","trial_type":"html-slider-response","trial_index":9,"time_elapsed":93472,"internal_node_id":"0.0-4.0-0.1","responseType":"finish","participantID":"fdntk05l0lmyab3dfd2pr1opzaamelhh","conditionNumber":0}],"__v":0}
{"_id":{"$oid":"5c47540842c271000439cfda"},"data":{"responseType":"start","participantID":"0m0gspvlc0w53vwpp8p10myf10rxx53y","conditionNumber":0},"__v":0}
{"_id":{"$oid":"5c47540f42c271000439cfdb"},"data":{"responseType":"start","participantID":"xs8ew1rbkyesjx2typcxd1y1w87l50en","conditionNumber":0},"__v":0}
{"_id":{"$oid":"5c47541542c271000439cfdc"},"data":[{"rt":15574,"responses":"{\"Q0\":\" I consent to participate\"}","trial_type":"survey-multi-choice","trial_index":0,"time_elapsed":15585,"internal_node_id":"0.0-0.0","responseType":"finish","participantID":"pffh609c34h6ph84e1yngxpolshqdhgq","conditionNumber":0},{"trial_type":"call-function","trial_index":1,"time_elapsed":15593,"internal_node_id":"0.0-1.0","responseType":"finish","participantID":"pffh609c34h6ph84e1yngxpolshqdhgq","conditionNumber":0},{"view_history":"[{\"page_index\":0,\"viewing_time\":7221}]","rt":7222,"trial_type":"instructions","trial_index":2,"time_elapsed":22816,"internal_node_id":"0.0-2.0","responseType":"finish","participantID":"pffh609c34h6ph84e1yngxpolshqdhgq","conditionNumber":0},{"rt":26365,"stimulus":"\u003cblockquote\u003e\n  \u003ch1 id=\"puzzle\"\u003ePuzzle\u003c/h1\u003e\n  \u003cp\u003eSherlock Holmes was in his house reading when suddenly a rock came crashing through the window. Holmes just got up in time to see three neighborhood kids who were brothers running away. Their names were John Smith, Mark Smith, and Paul Smith. \u003cbr\u003e\u003cbr\u003e\u003cbr\u003e\u003cbr\u003e\u003cbr\u003e\u003cbr\u003e\u003cbr\u003e\u003cbr\u003e Press 'n' once you are ready to read the next part of the puzzle.\u003c/p\u003e\n\u003c/blockquote\u003e","key_press":78,"trial_type":"html-keyboard-response","trial_index":3,"time_elapsed":49185,"internal_node_id":"0.0-3.0-0.0","responseType":"finish","participantID":"pffh609c34h6ph84e1yngxpolshqdhgq","conditionNumber":0},{"rt":33759,"stimulus":"\u003cblockquote\u003e\n  \u003ch1 id=\"puzzle\"\u003ePuzzle\u003c/h1\u003e\n  \u003cp\u003eSherlock Holmes was in his house reading when suddenly a rock came crashing through the window. Holmes just got up in time to see three neighborhood kids who were brothers running away. Their names were John Smith, Mark Smith, and Paul Smith.\u003c/p\u003e\n  \u003cp\u003eThe next day Holmes got a note on his door that read: \"? Smith. He broke your window.\" \u003cbr\u003e\u003cbr\u003e\u003cbr\u003e\u003cbr\u003e\u003cbr\u003e\u003cbr\u003e Press 'n' once you are ready to read the next part of the puzzle.\u003c/p\u003e\n\u003c/blockquote\u003e","key_press":78,"trial_type":"html-keyboard-response","trial_index":4,"time_elapsed":82947,"internal_node_id":"0.0-3.0-1.0","responseType":"finish","participantID":"pffh609c34h6ph84e1yngxpolshqdhgq","conditionNumber":0},{"rt":null,"stimulus":"\u003cblockquote\u003e\n  \u003ch1 id=\"puzzle\"\u003ePuzzle\u003c/h1\u003e\n  \u003cp\u003eSherlock Holmes was in his house reading when suddenly a rock came crashing through the window. Holmes just got up in time to see three neighborhood kids who were brothers running away. Their names were John Smith, Mark Smith, and Paul Smith.\u003c/p\u003e\n  \u003cp\u003eThe next day Holmes got a note on his door that read: \"? Smith. He broke your window.\" \u003c/p\u003e\n  \u003ch2 id=\"whichofthethreesmithbrothersshouldsherlockquestionabouttheincident\"\u003e\u003cem\u003eWhich of the three Smith brothers should Sherlock question about the incident?\u003c/em\u003e\u003c/h2\u003e\n  \u003cp\u003e\u003cbr\u003e\u003cbr\u003e\u003cbr\u003e\u003cbr\u003e\u003c/p\u003e\n\u003c/blockquote\u003e","key_press":null,"trial_type":"html-keyboard-response","trial_index":5,"time_elapsed":87951,"internal_node_id":"0.0-3.0-2.0","responseType":"finish","participantID":"pffh609c34h6ph84e1yngxpolshqdhgq","conditionNumber":0},{"rt":null,"stimulus":"\u003cblockquote\u003e\n  \u003ch1 id=\"puzzle\"\u003ePuzzle\u003c/h1\u003e\n  \u003cp\u003eSherlock Holmes was in his house reading when suddenly a rock came crashing through the window. Holmes just got up in time to see three neighborhood kids who were brothers running away. Their names were John Smith, Mark Smith, and Paul Smith.\u003c/p\u003e\n  \u003cp\u003eThe next day Holmes got a note on his door that read: \"? Smith. He broke your window.\" \u003c/p\u003e\n  \u003ch2 id=\"whichofthethreesmithbrothersshouldsherlockquestionabouttheincident\"\u003e\u003cem\u003eWhich of the three Smith brothers should Sherlock question about the incident?\u003c/em\u003e\u003c/h2\u003e\n  \u003cp\u003e.\u003cbr\u003e .\u003cbr\u003e We will now give you \u003cstrong\u003e60 seconds\u003c/strong\u003e to think about the answer to this problem. \u003c/p\u003e\n  \u003ch2 id=\"after60secondswewillshowyouahinttohelpsolvetheproblem\"\u003eAfter \u003cstrong\u003e60 seconds\u003c/strong\u003e, we will show you a \u003cstrong\u003ehint\u003c/strong\u003e to help solve the problem.\u003c/h2\u003e\n\u003c/blockquote\u003e","key_press":null,"trial_type":"html-keyboard-response","trial_index":6,"time_elapsed":107953,"internal_node_id":"0.0-3.0-3.0","responseType":"finish","participantID":"pffh609c34h6ph84e1yngxpolshqdhgq","conditionNumber":0},{"rt":10626,"stimulus":"\u003cblockquote\u003e\n  \u003cp\u003e\u003cstrong\u003eHINT:\u003c/strong\u003e What is the english translation of the symbol \"?\"\u003c/p\u003e\n\u003c/blockquote\u003e","key_press":78,"trial_type":"html-keyboard-response","trial_index":7,"time_elapsed":118581,"internal_node_id":"0.0-3.0-4.0","responseType":"finish","participantID":"pffh609c34h6ph84e1yngxpolshqdhgq","conditionNumber":0},{"rt":6042,"response":"69","stimulus":"Please rate how you felt once you understood the solution to the riddle.","trial_type":"html-slider-response","trial_index":8,"time_elapsed":124632,"internal_node_id":"0.0-4.0-0.0","responseType":"finish","participantID":"pffh609c34h6ph84e1yngxpolshqdhgq","conditionNumber":0},{"rt":13191,"response":"85","stimulus":"\u003cp\u003eAn Aha! moment is when the solution suddenly dawns on you and everything is clear immediately. In a flash. As an example, imagine a light bulb that is switched on all at once in contrast to slowly turning up the lights.\u003c/p\u003e\u003cp\u003ePlease rate your experience of an Aha! moment upon getting the solution to this puzzle. \u003c/p\u003e","trial_type":"html-slider-response","trial_index":9,"time_elapsed":137825,"internal_node_id":"0.0-4.0-0.1","responseType":"finish","participantID":"pffh609c34h6ph84e1yngxpolshqdhgq","conditionNumber":0}],"__v":0}
{"_id":{"$oid":"5c47541742c271000439cfdd"},"data":{"responseType":"start","participantID":"mttphgx9pbjekn3lz1lf2r7no2hqsrl6","conditionNumber":1},"__v":0}
{"_id":{"$oid":"5c47541e42c271000439cfde"},"data":[{"rt":5499,"responses":"{\"Q0\":\" I consent to participate\"}","trial_type":"survey-multi-choice","trial_index":0,"time_elapsed":5503,"internal_node_id":"0.0-0.0","responseType":"finish","participantID":"156x0y1b38l36f9bppq2zxz5o1vuptzz","conditionNumber":0},{"trial_type":"call-function","trial_index":1,"time_elapsed":5509,"internal_node_id":"0.0-1.0","responseType":"finish","participantID":"156x0y1b38l36f9bppq2zxz5o1vuptzz","conditionNumber":0},{"view_history":"[{\"page_index\":0,\"viewing_time\":5455}]","rt":5455,"trial_type":"instructions","trial_index":2,"time_elapsed":10964,"internal_node_id":"0.0-2.0","responseType":"finish","participantID":"156x0y1b38l36f9bppq2zxz5o1vuptzz","conditionNumber":0},{"rt":17843,"stimulus":"\u003cblockquote\u003e\n  \u003ch1 id=\"puzzle\"\u003ePuzzle\u003c/h1\u003e\n  \u003cp\u003eSherlock Holmes was in his house reading when suddenly a rock came crashing through the window. Holmes just got up in time to see three neighborhood kids who were brothers running away. Their names were John Smith, Mark Smith, and Paul Smith. \u003cbr\u003e\u003cbr\u003e\u003cbr\u003e\u003cbr\u003e\u003cbr\u003e\u003cbr\u003e\u003cbr\u003e\u003cbr\u003e Press 'n' once you are ready to read the next part of the puzzle.\u003c/p\u003e\n\u003c/blockquote\u003e","key_press":78,"trial_type":"html-keyboard-response","trial_index":3,"time_elapsed":28808,"internal_node_id":"0.0-3.0-0.0","responseType":"finish","participantID":"156x0y1b38l36f9bppq2zxz5o1vuptzz","conditionNumber":0},{"rt":11432,"stimulus":"\u003cblockquote\u003e\n  \u003ch1 id=\"puzzle\"\u003ePuzzle\u003c/h1\u003e\n  \u003cp\u003eSherlock Holmes was in his house reading when suddenly a rock came crashing through the window. Holmes just got up in time to see three neighborhood kids who were brothers running away. Their names were John Smith, Mark Smith, and Paul Smith.\u003c/p\u003e\n  \u003cp\u003eThe next day Holmes got a note on his door that read: \"? Smith. He broke your window.\" \u003cbr\u003e\u003cbr\u003e\u003cbr\u003e\u003cbr\u003e\u003cbr\u003e\u003cbr\u003e Press 'n' once you are ready to read the next part of the puzzle.\u003c/p\u003e\n\u003c/blockquote\u003e","key_press":78,"trial_type":"html-keyboard-response","trial_index":4,"time_elapsed":40241,"internal_node_id":"0.0-3.0-1.0","responseType":"finish","participantID":"156x0y1b38l36f9bppq2zxz5o1vuptzz","conditionNumber":0},{"rt":null,"stimulus":"\u003cblockquote\u003e\n  \u003ch1 id=\"puzzle\"\u003ePuzzle\u003c/h1\u003e\n  \u003cp\u003eSherlock Holmes was in his house reading when suddenly a rock came crashing through the window. Holmes just got up in time to see three neighborhood kids who were brothers running away. Their names were John Smith, Mark Smith, and Paul Smith.\u003c/p\u003e\n  \u003cp\u003eThe next day Holmes got a note on his door that read: \"? Smith. He broke your window.\" \u003c/p\u003e\n  \u003ch2 id=\"whichofthethreesmithbrothersshouldsherlockquestionabouttheincident\"\u003e\u003cem\u003eWhich of the three Smith brothers should Sherlock question about the incident?\u003c/em\u003e\u003c/h2\u003e\n  \u003cp\u003e\u003cbr\u003e\u003cbr\u003e\u003cbr\u003e\u003cbr\u003e\u003c/p\u003e\n\u003c/blockquote\u003e","key_press":null,"trial_type":"html-keyboard-response","trial_index":5,"time_elapsed":45244,"internal_node_id":"0.0-3.0-2.0","responseType":"finish","participantID":"156x0y1b38l36f9bppq2zxz5o1vuptzz","conditionNumber":0},{"rt":null,"stimulus":"\u003cblockquote\u003e\n  \u003ch1 id=\"puzzle\"\u003ePuzzle\u003c/h1\u003e\n  \u003cp\u003eSherlock Holmes was in his house reading when suddenly a rock came crashing through the window. Holmes just got up in time to see three neighborhood kids who were brothers running away. Their names were John Smith, Mark Smith, and Paul Smith.\u003c/p\u003e\n  \u003cp\u003eThe next day Holmes got a note on his door that read: \"? Smith. He broke your window.\" \u003c/p\u003e\n  \u003ch2 id=\"whichofthethreesmithbrothersshouldsherlockquestionabouttheincident\"\u003e\u003cem\u003eWhich of the three Smith brothers should Sherlock question about the incident?\u003c/em\u003e\u003c/h2\u003e\n  \u003cp\u003e.\u003cbr\u003e .\u003cbr\u003e We will now give you \u003cstrong\u003e60 seconds\u003c/strong\u003e to think about the answer to this problem. \u003c/p\u003e\n  \u003ch2 id=\"after60secondswewillshowyouahinttohelpsolvetheproblem\"\u003eAfter \u003cstrong\u003e60 seconds\u003c/strong\u003e, we will show you a \u003cstrong\u003ehint\u003c/strong\u003e to help solve the problem.\u003c/h2\u003e\n\u003c/blockquote\u003e","key_press":null,"trial_type":"html-keyboard-response","trial_index":6,"time_elapsed":65247,"internal_node_id":"0.0-3.0-3.0","responseType":"finish","participantID":"156x0y1b38l36f9bppq2zxz5o1vuptzz","conditionNumber":0},{"rt":6145,"stimulus":"\u003cblockquote\u003e\n  \u003cp\u003e\u003cstrong\u003eHINT:\u003c/strong\u003e What is the english translation of the symbol \"?\"\u003c/p\u003e\n\u003c/blockquote\u003e","key_press":78,"trial_type":"html-keyboard-response","trial_index":7,"time_elapsed":71393,"internal_node_id":"0.0-3.0-4.0","responseType":"finish","participantID":"156x0y1b38l36f9bppq2zxz5o1vuptzz","conditionNumber":0},{"rt":4068,"response":"76","stimulus":"Please rate how you felt once you understood the solution to the riddle.","trial_type":"html-slider-response","trial_index":8,"time_elapsed":75462,"internal_node_id":"0.0-4.0-0.0","responseType":"finish","participantID":"156x0y1b38l36f9bppq2zxz5o1vuptzz","conditionNumber":0},{"rt":7614,"response":"85","stimulus":"\u003cp\u003eAn Aha! moment is when the solution suddenly dawns on you and everything is clear immediately. In a flash. As an example, imagine a light bulb that is switched on all at once in contrast to slowly turning up the lights.\u003c/p\u003e\u003cp\u003ePlease rate your experience of an Aha! moment upon getting the solution to this puzzle. \u003c/p\u003e","trial_type":"html-slider-response","trial_index":9,"time_elapsed":83077,"internal_node_id":"0.0-4.0-0.1","responseType":"finish","participantID":"156x0y1b38l36f9bppq2zxz5o1vuptzz","conditionNumber":0}],"__v":0}
{"_id":{"$oid":"5c47542942c271000439cfdf"},"data":[{"rt":9077,"responses":"{\"Q0\":\" I consent to participate\"}","trial_type":"survey-multi-choice","trial_index":0,"time_elapsed":9101,"internal_node_id":"0.0-0.0","responseType":"finish","participantID":"gw29cugk0lrs7d9r7yjsxvr1pb452v2k","conditionNumber":1},{"trial_type":"call-function","trial_index":1,"time_elapsed":9126,"internal_node_id":"0.0-1.0","responseType":"finish","participantID":"gw29cugk0lrs7d9r7yjsxvr1pb452v2k","conditionNumber":1},{"view_history":"[{\"page_index\":0,\"viewing_time\":2902}]","rt":2902,"trial_type":"instructions","trial_index":2,"time_elapsed":12028,"internal_node_id":"0.0-2.0","responseType":"finish","participantID":"gw29cugk0lrs7d9r7yjsxvr1pb452v2k","conditionNumber":1},{"rt":8200,"stimulus":"\u003cblockquote\u003e\n  \u003ch1 id=\"puzzle\"\u003ePuzzle\u003c/h1\u003e\n  \u003cp\u003eSherlock Holmes was in his house reading when suddenly a rock came crashing through the window. Holmes just got up in time to see three neighborhood kids who were brothers running away. Their names were John Smith, Mark Smith, and Paul Smith. \u003cbr\u003e\u003cbr\u003e\u003cbr\u003e\u003cbr\u003e\u003cbr\u003e\u003cbr\u003e\u003cbr\u003e\u003cbr\u003e Press 'n' once you are ready to read the next part of the puzzle.\u003c/p\u003e\n\u003c/blockquote\u003e","key_press":78,"trial_type":"html-keyboard-response","trial_index":3,"time_elapsed":20230,"internal_node_id":"0.0-3.0-0.0","responseType":"finish","participantID":"gw29cugk0lrs7d9r7yjsxvr1pb452v2k","conditionNumber":1},{"rt":6805,"stimulus":"\u003cblockquote\u003e\n  \u003ch1 id=\"puzzle\"\u003ePuzzle\u003c/h1\u003e\n  \u003cp\u003eSherlock Holmes was in his house reading when suddenly a rock came crashing through the window. Holmes just got up in time to see three neighborhood kids who were brothers running away. Their names were John Smith, Mark Smith, and Paul Smith.\u003c/p\u003e\n  \u003cp\u003eThe next day Holmes got a note on his door that read: \"? Smith. He broke your window.\" \u003cbr\u003e\u003cbr\u003e\u003cbr\u003e\u003cbr\u003e\u003cbr\u003e\u003cbr\u003e Press 'n' once you are ready to read the next part of the puzzle.\u003c/p\u003e\n\u003c/blockquote\u003e","key_press":78,"trial_type":"html-keyboard-response","trial_index":4,"time_elapsed":27036,"internal_node_id":"0.0-3.0-1.0","responseType":"finish","participantID":"gw29cugk0lrs7d9r7yjsxvr1pb452v2k","conditionNumber":1},{"rt":null,"stimulus":"\u003cblockquote\u003e\n  \u003ch1 id=\"puzzle\"\u003ePuzzle\u003c/h1\u003e\n  \u003cp\u003eSherlock Holmes was in his house reading when suddenly a rock came crashing through the window. Holmes just got up in time to see three neighborhood kids who were brothers running away. Their names were John Smith, Mark Smith, and Paul Smith.\u003c/p\u003e\n  \u003cp\u003eThe next day Holmes got a note on his door that read: \"? Smith. He broke your window.\" \u003c/p\u003e\n  \u003ch2 id=\"whichofthethreesmithbrothersshouldsherlockquestionabouttheincident\"\u003e\u003cem\u003eWhich of the three Smith brothers should Sherlock question about the incident?\u003c/em\u003e\u003c/h2\u003e\n  \u003cp\u003e\u003cbr\u003e\u003cbr\u003e\u003cbr\u003e\u003cbr\u003e\u003c/p\u003e\n\u003c/blockquote\u003e","key_press":null,"trial_type":"html-keyboard-response","trial_index":5,"time_elapsed":32041,"internal_node_id":"0.0-3.0-2.0","responseType":"finish","participantID":"gw29cugk0lrs7d9r7yjsxvr1pb452v2k","conditionNumber":1},{"rt":null,"stimulus":"\u003cblockquote\u003e\n  \u003ch1 id=\"puzzle\"\u003ePuzzle\u003c/h1\u003e\n  \u003cp\u003eSherlock Holmes was in his house reading when suddenly a rock came crashing through the window. Holmes just got up in time to see three neighborhood kids who were brothers running away. Their names were John Smith, Mark Smith, and Paul Smith.\u003c/p\u003e\n  \u003cp\u003eThe next day Holmes got a note on his door that read: \"? Smith. He broke your window.\" \u003c/p\u003e\n  \u003ch2 id=\"whichofthethreesmithbrothersshouldsherlockquestionabouttheincident\"\u003e\u003cem\u003eWhich of the three Smith brothers should Sherlock question about the incident?\u003c/em\u003e\u003c/h2\u003e\n  \u003cp\u003e.\u003cbr\u003e .\u003cbr\u003e We will now give you \u003cstrong\u003e20 seconds\u003c/strong\u003e to think about the answer to this problem. \u003c/p\u003e\n  \u003ch2 id=\"after20secondswewillshowyouahinttohelpsolvetheproblem\"\u003eAfter \u003cstrong\u003e20 seconds\u003c/strong\u003e, we will show you a \u003cstrong\u003ehint\u003c/strong\u003e to help solve the problem.\u003c/h2\u003e\n\u003c/blockquote\u003e","key_press":null,"trial_type":"html-keyboard-response","trial_index":6,"time_elapsed":92042,"internal_node_id":"0.0-3.0-3.0","responseType":"finish","participantID":"gw29cugk0lrs7d9r7yjsxvr1pb452v2k","conditionNumber":1},{"rt":15135,"stimulus":"\u003cblockquote\u003e\n  \u003cp\u003e\u003cstrong\u003eHINT:\u003c/strong\u003e What is the english translation of the symbol \"?\"\u003c/p\u003e\n\u003c/blockquote\u003e","key_press":78,"trial_type":"html-keyboard-response","trial_index":7,"time_elapsed":107178,"internal_node_id":"0.0-3.0-4.0","responseType":"finish","participantID":"gw29cugk0lrs7d9r7yjsxvr1pb452v2k","conditionNumber":1},{"rt":2895,"response":"100","stimulus":"Please rate how you felt once you understood the solution to the riddle.","trial_type":"html-slider-response","trial_index":8,"time_elapsed":110075,"internal_node_id":"0.0-4.0-0.0","responseType":"finish","participantID":"gw29cugk0lrs7d9r7yjsxvr1pb452v2k","conditionNumber":1},{"rt":3686,"response":"96","stimulus":"\u003cp\u003eAn Aha! moment is when the solution suddenly dawns on you and everything is clear immediately. In a flash. As an example, imagine a light bulb that is switched on all at once in contrast to slowly turning up the lights.\u003c/p\u003e\u003cp\u003ePlease rate your experience of an Aha! moment upon getting the solution to this puzzle. \u003c/p\u003e","trial_type":"html-slider-response","trial_index":9,"time_elapsed":113763,"internal_node_id":"0.0-4.0-0.1","responseType":"finish","participantID":"gw29cugk0lrs7d9r7yjsxvr1pb452v2k","conditionNumber":1}],"__v":0}
{"_id":{"$oid":"5c47542c42c271000439cfe0"},"data":[{"rt":3915,"responses":"{\"Q0\":\" I consent to participate\"}","trial_type":"survey-multi-choice","trial_index":0,"time_elapsed":3923,"internal_node_id":"0.0-0.0","responseType":"finish","participantID":"c9ecodpdhc4jmgylpum8d52b2se4wl4o","conditionNumber":0},{"trial_type":"call-function","trial_index":1,"time_elapsed":3926,"internal_node_id":"0.0-1.0","responseType":"finish","participantID":"c9ecodpdhc4jmgylpum8d52b2se4wl4o","conditionNumber":0},{"view_history":"[{\"page_index\":0,\"viewing_time\":6611}]","rt":6611,"trial_type":"instructions","trial_index":2,"time_elapsed":10537,"internal_node_id":"0.0-2.0","responseType":"finish","participantID":"c9ecodpdhc4jmgylpum8d52b2se4wl4o","conditionNumber":0},{"rt":14279,"stimulus":"\u003cblockquote\u003e\n  \u003ch1 id=\"puzzle\"\u003ePuzzle\u003c/h1\u003e\n  \u003cp\u003eSherlock Holmes was in his house reading when suddenly a rock came crashing through the window. Holmes just got up in time to see three neighborhood kids who were brothers running away. Their names were John Smith, Mark Smith, and Paul Smith. \u003cbr\u003e\u003cbr\u003e\u003cbr\u003e\u003cbr\u003e\u003cbr\u003e\u003cbr\u003e\u003cbr\u003e\u003cbr\u003e Press 'n' once you are ready to read the next part of the puzzle.\u003c/p\u003e\n\u003c/blockquote\u003e","key_press":78,"trial_type":"html-keyboard-response","trial_index":3,"time_elapsed":24816,"internal_node_id":"0.0-3.0-0.0","responseType":"finish","participantID":"c9ecodpdhc4jmgylpum8d52b2se4wl4o","conditionNumber":0},{"rt":5135,"stimulus":"\u003cblockquote\u003e\n  \u003ch1 id=\"puzzle\"\u003ePuzzle\u003c/h1\u003e\n  \u003cp\u003eSherlock Holmes was in his house reading when suddenly a rock came crashing through the window. Holmes just got up in time to see three neighborhood kids who were brothers running away. Their names were John Smith, Mark Smith, and Paul Smith.\u003c/p\u003e\n  \u003cp\u003eThe next day Holmes got a note on his door that read: \"? Smith. He broke your window.\" \u003cbr\u003e\u003cbr\u003e\u003cbr\u003e\u003cbr\u003e\u003cbr\u003e\u003cbr\u003e Press 'n' once you are ready to read the next part of the puzzle.\u003c/p\u003e\n\u003c/blockquote\u003e","key_press":78,"trial_type":"html-keyboard-response","trial_index":4,"time_elapsed":29953,"internal_node_id":"0.0-3.0-1.0","responseType":"finish","participantID":"c9ecodpdhc4jmgylpum8d52b2se4wl4o","conditionNumber":0},{"rt":null,"stimulus":"\u003cblockquote\u003e\n  \u003ch1 id=\"puzzle\"\u003ePuzzle\u003c/h1\u003e\n  \u003cp\u003eSherlock Holmes was in his house reading when suddenly a rock came crashing through the window. Holmes just got up in time to see three neighborhood kids who were brothers running away. Their names were John Smith, Mark Smith, and Paul Smith.\u003c/p\u003e\n  \u003cp\u003eThe next day Holmes got a note on his door that read: \"? Smith. He broke your window.\" \u003c/p\u003e\n  \u003ch2 id=\"whichofthethreesmithbrothersshouldsherlockquestionabouttheincident\"\u003e\u003cem\u003eWhich of the three Smith brothers should Sherlock question about the incident?\u003c/em\u003e\u003c/h2\u003e\n  \u003cp\u003e\u003cbr\u003e\u003cbr\u003e\u003cbr\u003e\u003cbr\u003e\u003c/p\u003e\n\u003c/blockquote\u003e","key_press":null,"trial_type":"html-keyboard-response","trial_index":5,"time_elapsed":34955,"internal_node_id":"0.0-3.0-2.0","responseType":"finish","participantID":"c9ecodpdhc4jmgylpum8d52b2se4wl4o","conditionNumber":0},{"rt":null,"stimulus":"\u003cblockquote\u003e\n  \u003ch1 id=\"puzzle\"\u003ePuzzle\u003c/h1\u003e\n  \u003cp\u003eSherlock Holmes was in his house reading when suddenly a rock came crashing through the window. Holmes just got up in time to see three neighborhood kids who were brothers running away. Their names were John Smith, Mark Smith, and Paul Smith.\u003c/p\u003e\n  \u003cp\u003eThe next day Holmes got a note on his door that read: \"? Smith. He broke your window.\" \u003c/p\u003e\n  \u003ch2 id=\"whichofthethreesmithbrothersshouldsherlockquestionabouttheincident\"\u003e\u003cem\u003eWhich of the three Smith brothers should Sherlock question about the incident?\u003c/em\u003e\u003c/h2\u003e\n  \u003cp\u003e.\u003cbr\u003e .\u003cbr\u003e We will now give you \u003cstrong\u003e60 seconds\u003c/strong\u003e to think about the answer to this problem. \u003c/p\u003e\n  \u003ch2 id=\"after60secondswewillshowyouahinttohelpsolvetheproblem\"\u003eAfter \u003cstrong\u003e60 seconds\u003c/strong\u003e, we will show you a \u003cstrong\u003ehint\u003c/strong\u003e to help solve the problem.\u003c/h2\u003e\n\u003c/blockquote\u003e","key_press":null,"trial_type":"html-keyboard-response","trial_index":6,"time_elapsed":54957,"internal_node_id":"0.0-3.0-3.0","responseType":"finish","participantID":"c9ecodpdhc4jmgylpum8d52b2se4wl4o","conditionNumber":0},{"rt":7779,"stimulus":"\u003cblockquote\u003e\n  \u003cp\u003e\u003cstrong\u003eHINT:\u003c/strong\u003e What is the english translation of the symbol \"?\"\u003c/p\u003e\n\u003c/blockquote\u003e","key_press":78,"trial_type":"html-keyboard-response","trial_index":7,"time_elapsed":62737,"internal_node_id":"0.0-3.0-4.0","responseType":"finish","participantID":"c9ecodpdhc4jmgylpum8d52b2se4wl4o","conditionNumber":0},{"rt":15552,"response":"60","stimulus":"\u003cp\u003eAn Aha! moment is when the solution suddenly dawns on you and everything is clear immediately. In a flash. As an example, imagine a light bulb that is switched on all at once in contrast to slowly turning up the lights.\u003c/p\u003e\u003cp\u003ePlease rate your experience of an Aha! moment upon getting the solution to this puzzle. \u003c/p\u003e","trial_type":"html-slider-response","trial_index":8,"time_elapsed":78293,"internal_node_id":"0.0-4.0-0.0","responseType":"finish","participantID":"c9ecodpdhc4jmgylpum8d52b2se4wl4o","conditionNumber":0},{"rt":4601,"response":"50","stimulus":"Please rate how you felt once you understood the solution to the riddle.","trial_type":"html-slider-response","trial_index":9,"time_elapsed":82895,"internal_node_id":"0.0-4.0-0.1","responseType":"finish","participantID":"c9ecodpdhc4jmgylpum8d52b2se4wl4o","conditionNumber":0}],"__v":0}
{"_id":{"$oid":"5c47542d42c271000439cfe1"},"data":{"responseType":"start","participantID":"jxp2qzhg0nj1pguejvt6ntkqg2820vse","conditionNumber":1},"__v":0}
{"_id":{"$oid":"5c47542f42c271000439cfe2"},"data":[{"rt":9193,"responses":"{\"Q0\":\" I consent to participate\"}","trial_type":"survey-multi-choice","trial_index":0,"time_elapsed":9275,"internal_node_id":"0.0-0.0","responseType":"finish","participantID":"lj4maldw95ajdqdon7vu354vz6zq5x9w","conditionNumber":0},{"trial_type":"call-function","trial_index":1,"time_elapsed":9296,"internal_node_id":"0.0-1.0","responseType":"finish","participantID":"lj4maldw95ajdqdon7vu354vz6zq5x9w","conditionNumber":0},{"view_history":"[{\"page_index\":0,\"viewing_time\":4973}]","rt":4974,"trial_type":"instructions","trial_index":2,"time_elapsed":14271,"internal_node_id":"0.0-2.0","responseType":"finish","participantID":"lj4maldw95ajdqdon7vu354vz6zq5x9w","conditionNumber":0},{"rt":21804,"stimulus":"\u003cblockquote\u003e\n  \u003ch1 id=\"puzzle\"\u003ePuzzle\u003c/h1\u003e\n  \u003cp\u003eSherlock Holmes was in his house reading when suddenly a rock came crashing through the window. Holmes just got up in time to see three neighborhood kids who were brothers running away. Their names were John Smith, Mark Smith, and Paul Smith. \u003cbr\u003e\u003cbr\u003e\u003cbr\u003e\u003cbr\u003e\u003cbr\u003e\u003cbr\u003e\u003cbr\u003e\u003cbr\u003e Press 'n' once you are ready to read the next part of the puzzle.\u003c/p\u003e\n\u003c/blockquote\u003e","key_press":78,"trial_type":"html-keyboard-response","trial_index":3,"time_elapsed":36077,"internal_node_id":"0.0-3.0-0.0","responseType":"finish","participantID":"lj4maldw95ajdqdon7vu354vz6zq5x9w","conditionNumber":0},{"rt":10579,"stimulus":"\u003cblockquote\u003e\n  \u003ch1 id=\"puzzle\"\u003ePuzzle\u003c/h1\u003e\n  \u003cp\u003eSherlock Holmes was in his house reading when suddenly a rock came crashing through the window. Holmes just got up in time to see three neighborhood kids who were brothers running away. Their names were John Smith, Mark Smith, and Paul Smith.\u003c/p\u003e\n  \u003cp\u003eThe next day Holmes got a note on his door that read: \"? Smith. He broke your window.\" \u003cbr\u003e\u003cbr\u003e\u003cbr\u003e\u003cbr\u003e\u003cbr\u003e\u003cbr\u003e Press 'n' once you are ready to read the next part of the puzzle.\u003c/p\u003e\n\u003c/blockquote\u003e","key_press":78,"trial_type":"html-keyboard-response","trial_index":4,"time_elapsed":46658,"internal_node_id":"0.0-3.0-1.0","responseType":"finish","participantID":"lj4maldw95ajdqdon7vu354vz6zq5x9w","conditionNumber":0},{"rt":null,"stimulus":"\u003cblockquote\u003e\n  \u003ch1 id=\"puzzle\"\u003ePuzzle\u003c/h1\u003e\n  \u003cp\u003eSherlock Holmes was in his house reading when suddenly a rock came crashing through the window. Holmes just got up in time to see three neighborhood kids who were brothers running away. Their names were John Smith, Mark Smith, and Paul Smith.\u003c/p\u003e\n  \u003cp\u003eThe next day Holmes got a note on his door that read: \"? Smith. He broke your window.\" \u003c/p\u003e\n  \u003ch2 id=\"whichofthethreesmithbrothersshouldsherlockquestionabouttheincident\"\u003e\u003cem\u003eWhich of the three Smith brothers should Sherlock question about the incident?\u003c/em\u003e\u003c/h2\u003e\n  \u003cp\u003e\u003cbr\u003e\u003cbr\u003e\u003cbr\u003e\u003cbr\u003e\u003c/p\u003e\n\u003c/blockquote\u003e","key_press":null,"trial_type":"html-keyboard-response","trial_index":5,"time_elapsed":51661,"internal_node_id":"0.0-3.0-2.0","responseType":"finish","participantID":"lj4maldw95ajdqdon7vu354vz6zq5x9w","conditionNumber":0},{"rt":null,"stimulus":"\u003cblockquote\u003e\n  \u003ch1 id=\"puzzle\"\u003ePuzzle\u003c/h1\u003e\n  \u003cp\u003eSherlock Holmes was in his house reading when suddenly a rock came crashing through the window. Holmes just got up in time to see three neighborhood kids who were brothers running away. Their names were John Smith, Mark Smith, and Paul Smith.\u003c/p\u003e\n  \u003cp\u003eThe next day Holmes got a note on his door that read: \"? Smith. He broke your window.\" \u003c/p\u003e\n  \u003ch2 id=\"whichofthethreesmithbrothersshouldsherlockquestionabouttheincident\"\u003e\u003cem\u003eWhich of the three Smith brothers should Sherlock question about the incident?\u003c/em\u003e\u003c/h2\u003e\n  \u003cp\u003e.\u003cbr\u003e .\u003cbr\u003e We will now give you \u003cstrong\u003e60 seconds\u003c/strong\u003e to think about the answer to this problem. \u003c/p\u003e\n  \u003ch2 id=\"after60secondswewillshowyouahinttohelpsolvetheproblem\"\u003eAfter \u003cstrong\u003e60 seconds\u003c/strong\u003e, we will show you a \u003cstrong\u003ehint\u003c/strong\u003e to help solve the problem.\u003c/h2\u003e\n\u003c/blockquote\u003e","key_press":null,"trial_type":"html-keyboard-response","trial_index":6,"time_elapsed":71662,"internal_node_id":"0.0-3.0-3.0","responseType":"finish","participantID":"lj4maldw95ajdqdon7vu354vz6zq5x9w","conditionNumber":0},{"rt":10432,"stimulus":"\u003cblockquote\u003e\n  \u003cp\u003e\u003cstrong\u003eHINT:\u003c/strong\u003e What is the english translation of the symbol \"?\"\u003c/p\u003e\n\u003c/blockquote\u003e","key_press":78,"trial_type":"html-keyboard-response","trial_index":7,"time_elapsed":82095,"internal_node_id":"0.0-3.0-4.0","responseType":"finish","participantID":"lj4maldw95ajdqdon7vu354vz6zq5x9w","conditionNumber":0},{"rt":11791,"response":"0","stimulus":"\u003cp\u003eAn Aha! moment is when the solution suddenly dawns on you and everything is clear immediately. In a flash. As an example, imagine a light bulb that is switched on all at once in contrast to slowly turning up the lights.\u003c/p\u003e\u003cp\u003ePlease rate your experience of an Aha! moment upon getting the solution to this puzzle. \u003c/p\u003e","trial_type":"html-slider-response","trial_index":8,"time_elapsed":93890,"internal_node_id":"0.0-4.0-0.0","responseType":"finish","participantID":"lj4maldw95ajdqdon7vu354vz6zq5x9w","conditionNumber":0},{"rt":5889,"response":"17","stimulus":"Please rate how you felt once you understood the solution to the riddle.","trial_type":"html-slider-response","trial_index":9,"time_elapsed":99782,"internal_node_id":"0.0-4.0-0.1","responseType":"finish","participantID":"lj4maldw95ajdqdon7vu354vz6zq5x9w","conditionNumber":0}],"__v":0}
{"_id":{"$oid":"5c47544242c271000439cfe3"},"data":[{"rt":8634,"responses":"{\"Q0\":\" I consent to participate\"}","trial_type":"survey-multi-choice","trial_index":0,"time_elapsed":8651,"internal_node_id":"0.0-0.0","responseType":"finish","participantID":"zpm5sd1s70nb2ugve5ygps8q6yecew2r","conditionNumber":1},{"trial_type":"call-function","trial_index":1,"time_elapsed":8673,"internal_node_id":"0.0-1.0","responseType":"finish","participantID":"zpm5sd1s70nb2ugve5ygps8q6yecew2r","conditionNumber":1},{"view_history":"[{\"page_index\":0,\"viewing_time\":5247}]","rt":5247,"trial_type":"instructions","trial_index":2,"time_elapsed":13921,"internal_node_id":"0.0-2.0","responseType":"finish","participantID":"zpm5sd1s70nb2ugve5ygps8q6yecew2r","conditionNumber":1},{"rt":9177,"stimulus":"\u003cblockquote\u003e\n  \u003ch1 id=\"puzzle\"\u003ePuzzle\u003c/h1\u003e\n  \u003cp\u003eSherlock Holmes was in his house reading when suddenly a rock came crashing through the window. Holmes just got up in time to see three neighborhood kids who were brothers running away. Their names were John Smith, Mark Smith, and Paul Smith. \u003cbr\u003e\u003cbr\u003e\u003cbr\u003e\u003cbr\u003e\u003cbr\u003e\u003cbr\u003e\u003cbr\u003e\u003cbr\u003e Press 'n' once you are ready to read the next part of the puzzle.\u003c/p\u003e\n\u003c/blockquote\u003e","key_press":78,"trial_type":"html-keyboard-response","trial_index":3,"time_elapsed":23101,"internal_node_id":"0.0-3.0-0.0","responseType":"finish","participantID":"zpm5sd1s70nb2ugve5ygps8q6yecew2r","conditionNumber":1},{"rt":13069,"stimulus":"\u003cblockquote\u003e\n  \u003ch1 id=\"puzzle\"\u003ePuzzle\u003c/h1\u003e\n  \u003cp\u003eSherlock Holmes was in his house reading when suddenly a rock came crashing through the window. Holmes just got up in time to see three neighborhood kids who were brothers running away. Their names were John Smith, Mark Smith, and Paul Smith.\u003c/p\u003e\n  \u003cp\u003eThe next day Holmes got a note on his door that read: \"? Smith. He broke your window.\" \u003cbr\u003e\u003cbr\u003e\u003cbr\u003e\u003cbr\u003e\u003cbr\u003e\u003cbr\u003e Press 'n' once you are ready to read the next part of the puzzle.\u003c/p\u003e\n\u003c/blockquote\u003e","key_press":78,"trial_type":"html-keyboard-response","trial_index":4,"time_elapsed":36171,"internal_node_id":"0.0-3.0-1.0","responseType":"finish","participantID":"zpm5sd1s70nb2ugve5ygps8q6yecew2r","conditionNumber":1},{"rt":null,"stimulus":"\u003cblockquote\u003e\n  \u003ch1 id=\"puzzle\"\u003ePuzzle\u003c/h1\u003e\n  \u003cp\u003eSherlock Holmes was in his house reading when suddenly a rock came crashing through the window. Holmes just got up in time to see three neighborhood kids who were brothers running away. Their names were John Smith, Mark Smith, and Paul Smith.\u003c/p\u003e\n  \u003cp\u003eThe next day Holmes got a note on his door that read: \"? Smith. He broke your window.\" \u003c/p\u003e\n  \u003ch2 id=\"whichofthethreesmithbrothersshouldsherlockquestionabouttheincident\"\u003e\u003cem\u003eWhich of the three Smith brothers should Sherlock question about the incident?\u003c/em\u003e\u003c/h2\u003e\n  \u003cp\u003e\u003cbr\u003e\u003cbr\u003e\u003cbr\u003e\u003cbr\u003e\u003c/p\u003e\n\u003c/blockquote\u003e","key_press":null,"trial_type":"html-keyboard-response","trial_index":5,"time_elapsed":41174,"internal_node_id":"0.0-3.0-2.0","responseType":"finish","participantID":"zpm5sd1s70nb2ugve5ygps8q6yecew2r","conditionNumber":1},{"rt":null,"stimulus":"\u003cblockquote\u003e\n  \u003ch1 id=\"puzzle\"\u003ePuzzle\u003c/h1\u003e\n  \u003cp\u003eSherlock Holmes was in his house reading when suddenly a rock came crashing through the window. Holmes just got up in time to see three neighborhood kids who were brothers running away. Their names were John Smith, Mark Smith, and Paul Smith.\u003c/p\u003e\n  \u003cp\u003eThe next day Holmes got a note on his door that read: \"? Smith. He broke your window.\" \u003c/p\u003e\n  \u003ch2 id=\"whichofthethreesmithbrothersshouldsherlockquestionabouttheincident\"\u003e\u003cem\u003eWhich of the three Smith brothers should Sherlock question about the incident?\u003c/em\u003e\u003c/h2\u003e\n  \u003cp\u003e.\u003cbr\u003e .\u003cbr\u003e We will now give you \u003cstrong\u003e20 seconds\u003c/strong\u003e to think about the answer to this problem. \u003c/p\u003e\n  \u003ch2 id=\"after20secondswewillshowyouahinttohelpsolvetheproblem\"\u003eAfter \u003cstrong\u003e20 seconds\u003c/strong\u003e, we will show you a \u003cstrong\u003ehint\u003c/strong\u003e to help solve the problem.\u003c/h2\u003e\n\u003c/blockquote\u003e","key_press":null,"trial_type":"html-keyboard-response","trial_index":6,"time_elapsed":102137,"internal_node_id":"0.0-3.0-3.0","responseType":"finish","participantID":"zpm5sd1s70nb2ugve5ygps8q6yecew2r","conditionNumber":1},{"rt":24163,"stimulus":"\u003cblockquote\u003e\n  \u003cp\u003e\u003cstrong\u003eHINT:\u003c/strong\u003e What is the english translation of the symbol \"?\"\u003c/p\u003e\n\u003c/blockquote\u003e","key_press":78,"trial_type":"html-keyboard-response","trial_index":7,"time_elapsed":126300,"internal_node_id":"0.0-3.0-4.0","responseType":"finish","participantID":"zpm5sd1s70nb2ugve5ygps8q6yecew2r","conditionNumber":1},{"rt":12965,"response":"11","stimulus":"\u003cp\u003eAn Aha! moment is when the solution suddenly dawns on you and everything is clear immediately. In a flash. As an example, imagine a light bulb that is switched on all at once in contrast to slowly turning up the lights.\u003c/p\u003e\u003cp\u003ePlease rate your experience of an Aha! moment upon getting the solution to this puzzle. \u003c/p\u003e","trial_type":"html-slider-response","trial_index":8,"time_elapsed":139268,"internal_node_id":"0.0-4.0-0.0","responseType":"finish","participantID":"zpm5sd1s70nb2ugve5ygps8q6yecew2r","conditionNumber":1},{"rt":5693,"response":"50","stimulus":"Please rate how you felt once you understood the solution to the riddle.","trial_type":"html-slider-response","trial_index":9,"time_elapsed":144964,"internal_node_id":"0.0-4.0-0.1","responseType":"finish","participantID":"zpm5sd1s70nb2ugve5ygps8q6yecew2r","conditionNumber":1}],"__v":0}
