[{
  "_id": {
    "$oid": "61e0b8b2c104be000454d6e4"
  },
  "data": {
    "responseType": "start",
    "participantID": "r8jawyt82lju6ohcn1tbndu07fmgawf7",
    "conditionNumber": 2,
    "anagrams_seen": ">#BRID\n<br>"
  },
  "__v": 0
},{
  "_id": {
    "$oid": "61e0b8e1c104be000454d6e5"
  },
  "data": {
    "responseType": "start",
    "participantID": "8zpc03fb70vp0h6a4v49a30f8o4b1705",
    "conditionNumber": 2,
    "anagrams_seen": ">#BLUK\n<br>"
  },
  "__v": 0
},{
  "_id": {
    "$oid": "61e0b908c104be000454d6e6"
  },
  "data": {
    "responseType": "start",
    "participantID": "w3rc1q63l8f7k65680mm3f35g7xcxgec",
    "conditionNumber": 1,
    "anagrams_seen": ">#KNIG\n<br>"
  },
  "__v": 0
},{
  "_id": {
    "$oid": "61e0b978c104be000454d6e7"
  },
  "data": [
    {
      "rt": 28066,
      "responses": "{\"Q0\":\" I consent to participate\"}",
      "trial_type": "survey-multi-choice",
      "trial_index": 0,
      "time_elapsed": 28076,
      "internal_node_id": "0.0-0.0",
      "responseType": "finish",
      "participantID": "r8jawyt82lju6ohcn1tbndu07fmgawf7",
      "conditionNumber": 2
    },
    {
      "trial_type": "call-function",
      "trial_index": 1,
      "time_elapsed": 28083,
      "internal_node_id": "0.0-1.0",
      "responseType": "finish",
      "participantID": "r8jawyt82lju6ohcn1tbndu07fmgawf7",
      "conditionNumber": 2
    },
    {
      "view_history": "[{\"page_index\":0,\"viewing_time\":3717},{\"page_index\":1,\"viewing_time\":20437},{\"page_index\":2,\"viewing_time\":7236}]",
      "rt": 31392,
      "trial_type": "instructions",
      "trial_index": 2,
      "time_elapsed": 59475,
      "internal_node_id": "0.0-2.0",
      "responseType": "finish",
      "participantID": "r8jawyt82lju6ohcn1tbndu07fmgawf7",
      "conditionNumber": 2
    },
    {
      "rt": null,
      "stimulus": "<blockquote>\n  <p>The next anagram will be shown to you in <strong>12 seconds</strong>. <br><br> The page will automatically advance to the next screen after 12 seconds.</p>\n</blockquote>",
      "key_press": null,
      "trial_type": "html-keyboard-response",
      "trial_index": 3,
      "time_elapsed": 71481,
      "internal_node_id": "0.0-3.0-0.0",
      "responseType": "finish",
      "participantID": "r8jawyt82lju6ohcn1tbndu07fmgawf7",
      "conditionNumber": 2
    },
    {
      "rt": null,
      "stimulus": "<blockquote>\n  <h1 id=\"aneplix\">ANEPLIX</h1>\n  <p><br></p>\n</blockquote>",
      "key_press": null,
      "trial_type": "html-keyboard-response",
      "trial_index": 4,
      "time_elapsed": 81483,
      "internal_node_id": "0.0-3.0-1.0",
      "responseType": "finish",
      "participantID": "r8jawyt82lju6ohcn1tbndu07fmgawf7",
      "conditionNumber": 2
    },
    {
      "rt": 5605,
      "responses": "{\"Q0\":0}",
      "trial_type": "survey-likert",
      "trial_index": 5,
      "time_elapsed": 87091,
      "internal_node_id": "0.0-3.0-2.0",
      "responseType": "finish",
      "participantID": "r8jawyt82lju6ohcn1tbndu07fmgawf7",
      "conditionNumber": 2
    },
    {
      "rt": 28845,
      "responses": "{\"Q0\":0}",
      "trial_type": "survey-likert",
      "trial_index": 6,
      "time_elapsed": 115942,
      "internal_node_id": "0.0-3.0-3.0",
      "responseType": "finish",
      "participantID": "r8jawyt82lju6ohcn1tbndu07fmgawf7",
      "conditionNumber": 2
    },
    {
      "rt": null,
      "stimulus": "<blockquote>\n  <p>The next anagram will be shown to you in <strong>12 seconds</strong>. <br><br> The page will automatically advance to the next screen after 12 seconds.</p>\n</blockquote>",
      "key_press": null,
      "trial_type": "html-keyboard-response",
      "trial_index": 7,
      "time_elapsed": 127948,
      "internal_node_id": "0.0-3.0-4.0",
      "responseType": "finish",
      "participantID": "r8jawyt82lju6ohcn1tbndu07fmgawf7",
      "conditionNumber": 2
    },
    {
      "rt": null,
      "stimulus": "<blockquote>\n  <h1 id=\"udalrbe\">UDALRBE</h1>\n  <p><br></p>\n</blockquote>",
      "key_press": null,
      "trial_type": "html-keyboard-response",
      "trial_index": 8,
      "time_elapsed": 137950,
      "internal_node_id": "0.0-3.0-5.0",
      "responseType": "finish",
      "participantID": "r8jawyt82lju6ohcn1tbndu07fmgawf7",
      "conditionNumber": 2
    },
    {
      "rt": 2585,
      "responses": "{\"Q0\":0}",
      "trial_type": "survey-likert",
      "trial_index": 9,
      "time_elapsed": 140537,
      "internal_node_id": "0.0-3.0-6.0",
      "responseType": "finish",
      "participantID": "r8jawyt82lju6ohcn1tbndu07fmgawf7",
      "conditionNumber": 2
    },
    {
      "rt": 6224,
      "responses": "{\"Q0\":1}",
      "trial_type": "survey-likert",
      "trial_index": 10,
      "time_elapsed": 146765,
      "internal_node_id": "0.0-3.0-7.0",
      "responseType": "finish",
      "participantID": "r8jawyt82lju6ohcn1tbndu07fmgawf7",
      "conditionNumber": 2
    },
    {
      "rt": null,
      "stimulus": "<blockquote>\n  <p>The next anagram will be shown to you in <strong>12 seconds</strong>. <br><br> The page will automatically advance to the next screen after 12 seconds.</p>\n</blockquote>",
      "key_press": null,
      "trial_type": "html-keyboard-response",
      "trial_index": 11,
      "time_elapsed": 158773,
      "internal_node_id": "0.0-3.0-8.0",
      "responseType": "finish",
      "participantID": "r8jawyt82lju6ohcn1tbndu07fmgawf7",
      "conditionNumber": 2
    },
    {
      "rt": null,
      "stimulus": "<blockquote>\n  <h1 id=\"hnatuyg\">HNATUYG</h1>\n  <p><br></p>\n</blockquote>",
      "key_press": null,
      "trial_type": "html-keyboard-response",
      "trial_index": 12,
      "time_elapsed": 168776,
      "internal_node_id": "0.0-3.0-9.0",
      "responseType": "finish",
      "participantID": "r8jawyt82lju6ohcn1tbndu07fmgawf7",
      "conditionNumber": 2
    },
    {
      "rt": 1824,
      "responses": "{\"Q0\":0}",
      "trial_type": "survey-likert",
      "trial_index": 13,
      "time_elapsed": 170601,
      "internal_node_id": "0.0-3.0-10.0",
      "responseType": "finish",
      "participantID": "r8jawyt82lju6ohcn1tbndu07fmgawf7",
      "conditionNumber": 2
    },
    {
      "rt": 2724,
      "responses": "{\"Q0\":0}",
      "trial_type": "survey-likert",
      "trial_index": 14,
      "time_elapsed": 173330,
      "internal_node_id": "0.0-3.0-11.0",
      "responseType": "finish",
      "participantID": "r8jawyt82lju6ohcn1tbndu07fmgawf7",
      "conditionNumber": 2
    },
    {
      "rt": null,
      "stimulus": "<blockquote>\n  <p>The next anagram will be shown to you in <strong>12 seconds</strong>. <br><br> The page will automatically advance to the next screen after 12 seconds.</p>\n</blockquote>",
      "key_press": null,
      "trial_type": "html-keyboard-response",
      "trial_index": 15,
      "time_elapsed": 185338,
      "internal_node_id": "0.0-3.0-12.0",
      "responseType": "finish",
      "participantID": "r8jawyt82lju6ohcn1tbndu07fmgawf7",
      "conditionNumber": 2
    },
    {
      "rt": null,
      "stimulus": "<blockquote>\n  <h1 id=\"iocnrag\">IOCNRAG</h1>\n  <p><br></p>\n</blockquote>",
      "key_press": null,
      "trial_type": "html-keyboard-response",
      "trial_index": 16,
      "time_elapsed": 195340,
      "internal_node_id": "0.0-3.0-13.0",
      "responseType": "finish",
      "participantID": "r8jawyt82lju6ohcn1tbndu07fmgawf7",
      "conditionNumber": 2
    },
    {
      "rt": 1594,
      "responses": "{\"Q0\":0}",
      "trial_type": "survey-likert",
      "trial_index": 17,
      "time_elapsed": 196935,
      "internal_node_id": "0.0-3.0-14.0",
      "responseType": "finish",
      "participantID": "r8jawyt82lju6ohcn1tbndu07fmgawf7",
      "conditionNumber": 2
    },
    {
      "rt": 2199,
      "responses": "{\"Q0\":0}",
      "trial_type": "survey-likert",
      "trial_index": 18,
      "time_elapsed": 199138,
      "internal_node_id": "0.0-3.0-15.0",
      "responseType": "finish",
      "participantID": "r8jawyt82lju6ohcn1tbndu07fmgawf7",
      "conditionNumber": 2
    },
    {
      "rt": null,
      "stimulus": "<blockquote>\n  <p>The next anagram will be shown to you in <strong>12 seconds</strong>. <br><br> The page will automatically advance to the next screen after 12 seconds.</p>\n</blockquote>",
      "key_press": null,
      "trial_type": "html-keyboard-response",
      "trial_index": 19,
      "time_elapsed": 211148,
      "internal_node_id": "0.0-3.0-16.0",
      "responseType": "finish",
      "participantID": "r8jawyt82lju6ohcn1tbndu07fmgawf7",
      "conditionNumber": 2
    },
    {
      "rt": null,
      "stimulus": "<blockquote>\n  <h1 id=\"brid\">BRID</h1>\n  <p><br></p>\n</blockquote>",
      "key_press": null,
      "trial_type": "html-keyboard-response",
      "trial_index": 20,
      "time_elapsed": 221151,
      "internal_node_id": "0.0-3.0-17.0",
      "responseType": "finish",
      "participantID": "r8jawyt82lju6ohcn1tbndu07fmgawf7",
      "conditionNumber": 2
    },
    {
      "rt": 2027,
      "responses": "{\"Q0\":1}",
      "trial_type": "survey-likert",
      "trial_index": 21,
      "time_elapsed": 223181,
      "internal_node_id": "0.0-4.0-0.0",
      "responseType": "finish",
      "participantID": "r8jawyt82lju6ohcn1tbndu07fmgawf7",
      "conditionNumber": 2
    },
    {
      "rt": 3215,
      "responses": "{\"Q0\":6}",
      "trial_type": "survey-likert",
      "trial_index": 22,
      "time_elapsed": 226401,
      "internal_node_id": "0.0-4.0-0.1",
      "responseType": "finish",
      "participantID": "r8jawyt82lju6ohcn1tbndu07fmgawf7",
      "conditionNumber": 2
    }
  ],
  "__v": 0
},{
  "_id": {
    "$oid": "61e0b989c104be000454d6e8"
  },
  "data": [
    {
      "rt": 24235,
      "responses": "{\"Q0\":\" I consent to participate\"}",
      "trial_type": "survey-multi-choice",
      "trial_index": 0,
      "time_elapsed": 24249,
      "internal_node_id": "0.0-0.0",
      "responseType": "finish",
      "participantID": "8zpc03fb70vp0h6a4v49a30f8o4b1705",
      "conditionNumber": 2
    },
    {
      "trial_type": "call-function",
      "trial_index": 1,
      "time_elapsed": 24256,
      "internal_node_id": "0.0-1.0",
      "responseType": "finish",
      "participantID": "8zpc03fb70vp0h6a4v49a30f8o4b1705",
      "conditionNumber": 2
    },
    {
      "view_history": "[{\"page_index\":0,\"viewing_time\":1603},{\"page_index\":1,\"viewing_time\":18439},{\"page_index\":2,\"viewing_time\":8368}]",
      "rt": 28413,
      "trial_type": "instructions",
      "trial_index": 2,
      "time_elapsed": 52669,
      "internal_node_id": "0.0-2.0",
      "responseType": "finish",
      "participantID": "8zpc03fb70vp0h6a4v49a30f8o4b1705",
      "conditionNumber": 2
    },
    {
      "rt": null,
      "stimulus": "<blockquote>\n  <p>The next anagram will be shown to you in <strong>12 seconds</strong>. <br><br> The page will automatically advance to the next screen after 12 seconds.</p>\n</blockquote>",
      "key_press": null,
      "trial_type": "html-keyboard-response",
      "trial_index": 3,
      "time_elapsed": 64678,
      "internal_node_id": "0.0-3.0-0.0",
      "responseType": "finish",
      "participantID": "8zpc03fb70vp0h6a4v49a30f8o4b1705",
      "conditionNumber": 2
    },
    {
      "rt": null,
      "stimulus": "<blockquote>\n  <h1 id=\"udalrbe\">UDALRBE</h1>\n  <p><br></p>\n</blockquote>",
      "key_press": null,
      "trial_type": "html-keyboard-response",
      "trial_index": 4,
      "time_elapsed": 74685,
      "internal_node_id": "0.0-3.0-1.0",
      "responseType": "finish",
      "participantID": "8zpc03fb70vp0h6a4v49a30f8o4b1705",
      "conditionNumber": 2
    },
    {
      "rt": 2601,
      "responses": "{\"Q0\":0}",
      "trial_type": "survey-likert",
      "trial_index": 5,
      "time_elapsed": 77295,
      "internal_node_id": "0.0-3.0-2.0",
      "responseType": "finish",
      "participantID": "8zpc03fb70vp0h6a4v49a30f8o4b1705",
      "conditionNumber": 2
    },
    {
      "rt": 7630,
      "responses": "{\"Q0\":1}",
      "trial_type": "survey-likert",
      "trial_index": 6,
      "time_elapsed": 84929,
      "internal_node_id": "0.0-3.0-3.0",
      "responseType": "finish",
      "participantID": "8zpc03fb70vp0h6a4v49a30f8o4b1705",
      "conditionNumber": 2
    },
    {
      "rt": null,
      "stimulus": "<blockquote>\n  <p>The next anagram will be shown to you in <strong>12 seconds</strong>. <br><br> The page will automatically advance to the next screen after 12 seconds.</p>\n</blockquote>",
      "key_press": null,
      "trial_type": "html-keyboard-response",
      "trial_index": 7,
      "time_elapsed": 96935,
      "internal_node_id": "0.0-3.0-4.0",
      "responseType": "finish",
      "participantID": "8zpc03fb70vp0h6a4v49a30f8o4b1705",
      "conditionNumber": 2
    },
    {
      "rt": null,
      "stimulus": "<blockquote>\n  <h1 id=\"aneplix\">ANEPLIX</h1>\n  <p><br></p>\n</blockquote>",
      "key_press": null,
      "trial_type": "html-keyboard-response",
      "trial_index": 8,
      "time_elapsed": 106944,
      "internal_node_id": "0.0-3.0-5.0",
      "responseType": "finish",
      "participantID": "8zpc03fb70vp0h6a4v49a30f8o4b1705",
      "conditionNumber": 2
    },
    {
      "rt": 2544,
      "responses": "{\"Q0\":1}",
      "trial_type": "survey-likert",
      "trial_index": 9,
      "time_elapsed": 109496,
      "internal_node_id": "0.0-3.0-6.0",
      "responseType": "finish",
      "participantID": "8zpc03fb70vp0h6a4v49a30f8o4b1705",
      "conditionNumber": 2
    },
    {
      "rt": 3477,
      "responses": "{\"Q0\":4}",
      "trial_type": "survey-likert",
      "trial_index": 10,
      "time_elapsed": 112977,
      "internal_node_id": "0.0-3.0-7.0",
      "responseType": "finish",
      "participantID": "8zpc03fb70vp0h6a4v49a30f8o4b1705",
      "conditionNumber": 2
    },
    {
      "rt": null,
      "stimulus": "<blockquote>\n  <p>The next anagram will be shown to you in <strong>12 seconds</strong>. <br><br> The page will automatically advance to the next screen after 12 seconds.</p>\n</blockquote>",
      "key_press": null,
      "trial_type": "html-keyboard-response",
      "trial_index": 11,
      "time_elapsed": 124985,
      "internal_node_id": "0.0-3.0-8.0",
      "responseType": "finish",
      "participantID": "8zpc03fb70vp0h6a4v49a30f8o4b1705",
      "conditionNumber": 2
    },
    {
      "rt": null,
      "stimulus": "<blockquote>\n  <h1 id=\"iocnrag\">IOCNRAG</h1>\n  <p><br></p>\n</blockquote>",
      "key_press": null,
      "trial_type": "html-keyboard-response",
      "trial_index": 12,
      "time_elapsed": 134992,
      "internal_node_id": "0.0-3.0-9.0",
      "responseType": "finish",
      "participantID": "8zpc03fb70vp0h6a4v49a30f8o4b1705",
      "conditionNumber": 2
    },
    {
      "rt": 1388,
      "responses": "{\"Q0\":0}",
      "trial_type": "survey-likert",
      "trial_index": 13,
      "time_elapsed": 136388,
      "internal_node_id": "0.0-3.0-10.0",
      "responseType": "finish",
      "participantID": "8zpc03fb70vp0h6a4v49a30f8o4b1705",
      "conditionNumber": 2
    },
    {
      "rt": 4296,
      "responses": "{\"Q0\":1}",
      "trial_type": "survey-likert",
      "trial_index": 14,
      "time_elapsed": 140689,
      "internal_node_id": "0.0-3.0-11.0",
      "responseType": "finish",
      "participantID": "8zpc03fb70vp0h6a4v49a30f8o4b1705",
      "conditionNumber": 2
    },
    {
      "rt": null,
      "stimulus": "<blockquote>\n  <p>The next anagram will be shown to you in <strong>12 seconds</strong>. <br><br> The page will automatically advance to the next screen after 12 seconds.</p>\n</blockquote>",
      "key_press": null,
      "trial_type": "html-keyboard-response",
      "trial_index": 15,
      "time_elapsed": 152698,
      "internal_node_id": "0.0-3.0-12.0",
      "responseType": "finish",
      "participantID": "8zpc03fb70vp0h6a4v49a30f8o4b1705",
      "conditionNumber": 2
    },
    {
      "rt": null,
      "stimulus": "<blockquote>\n  <h1 id=\"hnatuyg\">HNATUYG</h1>\n  <p><br></p>\n</blockquote>",
      "key_press": null,
      "trial_type": "html-keyboard-response",
      "trial_index": 16,
      "time_elapsed": 162704,
      "internal_node_id": "0.0-3.0-13.0",
      "responseType": "finish",
      "participantID": "8zpc03fb70vp0h6a4v49a30f8o4b1705",
      "conditionNumber": 2
    },
    {
      "rt": 1302,
      "responses": "{\"Q0\":0}",
      "trial_type": "survey-likert",
      "trial_index": 17,
      "time_elapsed": 164010,
      "internal_node_id": "0.0-3.0-14.0",
      "responseType": "finish",
      "participantID": "8zpc03fb70vp0h6a4v49a30f8o4b1705",
      "conditionNumber": 2
    },
    {
      "rt": 1945,
      "responses": "{\"Q0\":0}",
      "trial_type": "survey-likert",
      "trial_index": 18,
      "time_elapsed": 165959,
      "internal_node_id": "0.0-3.0-15.0",
      "responseType": "finish",
      "participantID": "8zpc03fb70vp0h6a4v49a30f8o4b1705",
      "conditionNumber": 2
    },
    {
      "rt": null,
      "stimulus": "<blockquote>\n  <p>The next anagram will be shown to you in <strong>12 seconds</strong>. <br><br> The page will automatically advance to the next screen after 12 seconds.</p>\n</blockquote>",
      "key_press": null,
      "trial_type": "html-keyboard-response",
      "trial_index": 19,
      "time_elapsed": 177964,
      "internal_node_id": "0.0-3.0-16.0",
      "responseType": "finish",
      "participantID": "8zpc03fb70vp0h6a4v49a30f8o4b1705",
      "conditionNumber": 2
    },
    {
      "rt": null,
      "stimulus": "<blockquote>\n  <h1 id=\"bluk\">BLUK</h1>\n  <p><br></p>\n</blockquote>",
      "key_press": null,
      "trial_type": "html-keyboard-response",
      "trial_index": 20,
      "time_elapsed": 187977,
      "internal_node_id": "0.0-3.0-17.0",
      "responseType": "finish",
      "participantID": "8zpc03fb70vp0h6a4v49a30f8o4b1705",
      "conditionNumber": 2
    },
    {
      "rt": 1437,
      "responses": "{\"Q0\":1}",
      "trial_type": "survey-likert",
      "trial_index": 21,
      "time_elapsed": 189424,
      "internal_node_id": "0.0-4.0-0.0",
      "responseType": "finish",
      "participantID": "8zpc03fb70vp0h6a4v49a30f8o4b1705",
      "conditionNumber": 2
    },
    {
      "rt": 2625,
      "responses": "{\"Q0\":4}",
      "trial_type": "survey-likert",
      "trial_index": 22,
      "time_elapsed": 192052,
      "internal_node_id": "0.0-4.0-0.1",
      "responseType": "finish",
      "participantID": "8zpc03fb70vp0h6a4v49a30f8o4b1705",
      "conditionNumber": 2
    }
  ],
  "__v": 0
},{
  "_id": {
    "$oid": "61e0b99ac104be000454d6e9"
  },
  "data": {
    "responseType": "start",
    "participantID": "p2huldllhaumlvcoel54zuwz635m3w3t",
    "conditionNumber": 2,
    "anagrams_seen": ">#KNIG\n<br>"
  },
  "__v": 0
},{
  "_id": {
    "$oid": "61e0b9a0c104be000454d6ea"
  },
  "data": [
    {
      "rt": 4343,
      "responses": "{\"Q0\":\" I consent to participate\"}",
      "trial_type": "survey-multi-choice",
      "trial_index": 0,
      "time_elapsed": 4351,
      "internal_node_id": "0.0-0.0",
      "responseType": "finish",
      "participantID": "w3rc1q63l8f7k65680mm3f35g7xcxgec",
      "conditionNumber": 1
    },
    {
      "trial_type": "call-function",
      "trial_index": 1,
      "time_elapsed": 4359,
      "internal_node_id": "0.0-1.0",
      "responseType": "finish",
      "participantID": "w3rc1q63l8f7k65680mm3f35g7xcxgec",
      "conditionNumber": 1
    },
    {
      "view_history": "[{\"page_index\":0,\"viewing_time\":1313},{\"page_index\":1,\"viewing_time\":7581},{\"page_index\":2,\"viewing_time\":1486}]",
      "rt": 10381,
      "trial_type": "instructions",
      "trial_index": 2,
      "time_elapsed": 14740,
      "internal_node_id": "0.0-2.0",
      "responseType": "finish",
      "participantID": "w3rc1q63l8f7k65680mm3f35g7xcxgec",
      "conditionNumber": 1
    },
    {
      "rt": null,
      "stimulus": "<blockquote>\n  <p>The next anagram will be shown to you in <strong>12 seconds</strong>. <br><br> The page will automatically advance to the next screen after 12 seconds.</p>\n</blockquote>",
      "key_press": null,
      "trial_type": "html-keyboard-response",
      "trial_index": 3,
      "time_elapsed": 26751,
      "internal_node_id": "0.0-3.0-0.0",
      "responseType": "finish",
      "participantID": "w3rc1q63l8f7k65680mm3f35g7xcxgec",
      "conditionNumber": 1
    },
    {
      "rt": null,
      "stimulus": "<blockquote>\n  <h1 id=\"fidn\">FIDN</h1>\n  <p><br></p>\n</blockquote>",
      "key_press": null,
      "trial_type": "html-keyboard-response",
      "trial_index": 4,
      "time_elapsed": 36765,
      "internal_node_id": "0.0-3.0-1.0",
      "responseType": "finish",
      "participantID": "w3rc1q63l8f7k65680mm3f35g7xcxgec",
      "conditionNumber": 1
    },
    {
      "rt": 5399,
      "responses": "{\"Q0\":1}",
      "trial_type": "survey-likert",
      "trial_index": 5,
      "time_elapsed": 42165,
      "internal_node_id": "0.0-3.0-2.0",
      "responseType": "finish",
      "participantID": "w3rc1q63l8f7k65680mm3f35g7xcxgec",
      "conditionNumber": 1
    },
    {
      "rt": 14430,
      "responses": "{\"Q0\":3}",
      "trial_type": "survey-likert",
      "trial_index": 6,
      "time_elapsed": 56598,
      "internal_node_id": "0.0-3.0-3.0",
      "responseType": "finish",
      "participantID": "w3rc1q63l8f7k65680mm3f35g7xcxgec",
      "conditionNumber": 1
    },
    {
      "rt": null,
      "stimulus": "<blockquote>\n  <p>The next anagram will be shown to you in <strong>12 seconds</strong>. <br><br> The page will automatically advance to the next screen after 12 seconds.</p>\n</blockquote>",
      "key_press": null,
      "trial_type": "html-keyboard-response",
      "trial_index": 7,
      "time_elapsed": 68600,
      "internal_node_id": "0.0-3.0-4.0",
      "responseType": "finish",
      "participantID": "w3rc1q63l8f7k65680mm3f35g7xcxgec",
      "conditionNumber": 1
    },
    {
      "rt": null,
      "stimulus": "<blockquote>\n  <h1 id=\"pitn\">PITN</h1>\n  <p><br></p>\n</blockquote>",
      "key_press": null,
      "trial_type": "html-keyboard-response",
      "trial_index": 8,
      "time_elapsed": 78601,
      "internal_node_id": "0.0-3.0-5.0",
      "responseType": "finish",
      "participantID": "w3rc1q63l8f7k65680mm3f35g7xcxgec",
      "conditionNumber": 1
    },
    {
      "rt": 2792,
      "responses": "{\"Q0\":1}",
      "trial_type": "survey-likert",
      "trial_index": 9,
      "time_elapsed": 81395,
      "internal_node_id": "0.0-3.0-6.0",
      "responseType": "finish",
      "participantID": "w3rc1q63l8f7k65680mm3f35g7xcxgec",
      "conditionNumber": 1
    },
    {
      "rt": 2560,
      "responses": "{\"Q0\":5}",
      "trial_type": "survey-likert",
      "trial_index": 10,
      "time_elapsed": 83956,
      "internal_node_id": "0.0-3.0-7.0",
      "responseType": "finish",
      "participantID": "w3rc1q63l8f7k65680mm3f35g7xcxgec",
      "conditionNumber": 1
    },
    {
      "rt": null,
      "stimulus": "<blockquote>\n  <p>The next anagram will be shown to you in <strong>12 seconds</strong>. <br><br> The page will automatically advance to the next screen after 12 seconds.</p>\n</blockquote>",
      "key_press": null,
      "trial_type": "html-keyboard-response",
      "trial_index": 11,
      "time_elapsed": 95959,
      "internal_node_id": "0.0-3.0-8.0",
      "responseType": "finish",
      "participantID": "w3rc1q63l8f7k65680mm3f35g7xcxgec",
      "conditionNumber": 1
    },
    {
      "rt": null,
      "stimulus": "<blockquote>\n  <h1 id=\"codl\">CODL</h1>\n  <p><br></p>\n</blockquote>",
      "key_press": null,
      "trial_type": "html-keyboard-response",
      "trial_index": 12,
      "time_elapsed": 105962,
      "internal_node_id": "0.0-3.0-9.0",
      "responseType": "finish",
      "participantID": "w3rc1q63l8f7k65680mm3f35g7xcxgec",
      "conditionNumber": 1
    },
    {
      "rt": 2788,
      "responses": "{\"Q0\":1}",
      "trial_type": "survey-likert",
      "trial_index": 13,
      "time_elapsed": 108752,
      "internal_node_id": "0.0-3.0-10.0",
      "responseType": "finish",
      "participantID": "w3rc1q63l8f7k65680mm3f35g7xcxgec",
      "conditionNumber": 1
    },
    {
      "rt": 2738,
      "responses": "{\"Q0\":1}",
      "trial_type": "survey-likert",
      "trial_index": 14,
      "time_elapsed": 111493,
      "internal_node_id": "0.0-3.0-11.0",
      "responseType": "finish",
      "participantID": "w3rc1q63l8f7k65680mm3f35g7xcxgec",
      "conditionNumber": 1
    },
    {
      "rt": null,
      "stimulus": "<blockquote>\n  <p>The next anagram will be shown to you in <strong>12 seconds</strong>. <br><br> The page will automatically advance to the next screen after 12 seconds.</p>\n</blockquote>",
      "key_press": null,
      "trial_type": "html-keyboard-response",
      "trial_index": 15,
      "time_elapsed": 123495,
      "internal_node_id": "0.0-3.0-12.0",
      "responseType": "finish",
      "participantID": "w3rc1q63l8f7k65680mm3f35g7xcxgec",
      "conditionNumber": 1
    },
    {
      "rt": null,
      "stimulus": "<blockquote>\n  <h1 id=\"betl\">BETL</h1>\n  <p><br></p>\n</blockquote>",
      "key_press": null,
      "trial_type": "html-keyboard-response",
      "trial_index": 16,
      "time_elapsed": 133496,
      "internal_node_id": "0.0-3.0-13.0",
      "responseType": "finish",
      "participantID": "w3rc1q63l8f7k65680mm3f35g7xcxgec",
      "conditionNumber": 1
    },
    {
      "rt": 3185,
      "responses": "{\"Q0\":1}",
      "trial_type": "survey-likert",
      "trial_index": 17,
      "time_elapsed": 136699,
      "internal_node_id": "0.0-3.0-14.0",
      "responseType": "finish",
      "participantID": "w3rc1q63l8f7k65680mm3f35g7xcxgec",
      "conditionNumber": 1
    },
    {
      "rt": 2940,
      "responses": "{\"Q0\":0}",
      "trial_type": "survey-likert",
      "trial_index": 18,
      "time_elapsed": 139643,
      "internal_node_id": "0.0-3.0-15.0",
      "responseType": "finish",
      "participantID": "w3rc1q63l8f7k65680mm3f35g7xcxgec",
      "conditionNumber": 1
    },
    {
      "rt": null,
      "stimulus": "<blockquote>\n  <p>The next anagram will be shown to you in <strong>12 seconds</strong>. <br><br> The page will automatically advance to the next screen after 12 seconds.</p>\n</blockquote>",
      "key_press": null,
      "trial_type": "html-keyboard-response",
      "trial_index": 19,
      "time_elapsed": 141649,
      "internal_node_id": "0.0-3.0-16.0",
      "responseType": "finish",
      "participantID": "w3rc1q63l8f7k65680mm3f35g7xcxgec",
      "conditionNumber": 1
    },
    {
      "rt": null,
      "stimulus": "<blockquote>\n  <h1 id=\"knig\">KNIG</h1>\n  <p><br></p>\n</blockquote>",
      "key_press": null,
      "trial_type": "html-keyboard-response",
      "trial_index": 20,
      "time_elapsed": 151667,
      "internal_node_id": "0.0-3.0-17.0",
      "responseType": "finish",
      "participantID": "w3rc1q63l8f7k65680mm3f35g7xcxgec",
      "conditionNumber": 1
    },
    {
      "rt": 2356,
      "responses": "{\"Q0\":1}",
      "trial_type": "survey-likert",
      "trial_index": 21,
      "time_elapsed": 154025,
      "internal_node_id": "0.0-4.0-0.0",
      "responseType": "finish",
      "participantID": "w3rc1q63l8f7k65680mm3f35g7xcxgec",
      "conditionNumber": 1
    },
    {
      "rt": 1554,
      "responses": "{\"Q0\":2}",
      "trial_type": "survey-likert",
      "trial_index": 22,
      "time_elapsed": 155581,
      "internal_node_id": "0.0-4.0-0.1",
      "responseType": "finish",
      "participantID": "w3rc1q63l8f7k65680mm3f35g7xcxgec",
      "conditionNumber": 1
    }
  ],
  "__v": 0
},{
  "_id": {
    "$oid": "61e0b9cdc104be000454d6eb"
  },
  "data": {
    "responseType": "start",
    "participantID": "cj3hyry4jbezbyrh4v5c4oz0b8u2940y",
    "conditionNumber": 2,
    "anagrams_seen": ">#KNIG\n<br>"
  },
  "__v": 0
},{
  "_id": {
    "$oid": "61e0ba12c104be000454d6ec"
  },
  "data": {
    "responseType": "start",
    "participantID": "thkzevpl1jh7zoeorfjlhbrzgxsknq3x",
    "conditionNumber": 1,
    "anagrams_seen": ">#GLOD\n<br>"
  },
  "__v": 0
},{
  "_id": {
    "$oid": "61e0ba25c104be000454d6ed"
  },
  "data": {
    "responseType": "start",
    "participantID": "l7n5aszj93zs0cyl2yjddcwxlf1v6889",
    "conditionNumber": 3,
    "anagrams_seen": ">#KNIG\n<br>"
  },
  "__v": 0
},{
  "_id": {
    "$oid": "61e0ba4bc104be000454d6ee"
  },
  "data": [
    {
      "rt": 4276,
      "responses": "{\"Q0\":\" I consent to participate\"}",
      "trial_type": "survey-multi-choice",
      "trial_index": 0,
      "time_elapsed": 4282,
      "internal_node_id": "0.0-0.0",
      "responseType": "finish",
      "participantID": "p2huldllhaumlvcoel54zuwz635m3w3t",
      "conditionNumber": 2
    },
    {
      "trial_type": "call-function",
      "trial_index": 1,
      "time_elapsed": 4286,
      "internal_node_id": "0.0-1.0",
      "responseType": "finish",
      "participantID": "p2huldllhaumlvcoel54zuwz635m3w3t",
      "conditionNumber": 2
    },
    {
      "view_history": "[{\"page_index\":0,\"viewing_time\":2414},{\"page_index\":1,\"viewing_time\":11065},{\"page_index\":2,\"viewing_time\":14650}]",
      "rt": 28130,
      "trial_type": "instructions",
      "trial_index": 2,
      "time_elapsed": 32416,
      "internal_node_id": "0.0-2.0",
      "responseType": "finish",
      "participantID": "p2huldllhaumlvcoel54zuwz635m3w3t",
      "conditionNumber": 2
    },
    {
      "rt": null,
      "stimulus": "<blockquote>\n  <p>The next anagram will be shown to you in <strong>12 seconds</strong>. <br><br> The page will automatically advance to the next screen after 12 seconds.</p>\n</blockquote>",
      "key_press": null,
      "trial_type": "html-keyboard-response",
      "trial_index": 3,
      "time_elapsed": 44423,
      "internal_node_id": "0.0-3.0-0.0",
      "responseType": "finish",
      "participantID": "p2huldllhaumlvcoel54zuwz635m3w3t",
      "conditionNumber": 2
    },
    {
      "rt": null,
      "stimulus": "<blockquote>\n  <h1 id=\"eurndf\">EURNDF</h1>\n  <p><br></p>\n</blockquote>",
      "key_press": null,
      "trial_type": "html-keyboard-response",
      "trial_index": 4,
      "time_elapsed": 54429,
      "internal_node_id": "0.0-3.0-1.0",
      "responseType": "finish",
      "participantID": "p2huldllhaumlvcoel54zuwz635m3w3t",
      "conditionNumber": 2
    },
    {
      "rt": 4597,
      "responses": "{\"Q0\":0}",
      "trial_type": "survey-likert",
      "trial_index": 5,
      "time_elapsed": 59028,
      "internal_node_id": "0.0-3.0-2.0",
      "responseType": "finish",
      "participantID": "p2huldllhaumlvcoel54zuwz635m3w3t",
      "conditionNumber": 2
    },
    {
      "rt": 11267,
      "responses": "{\"Q0\":0}",
      "trial_type": "survey-likert",
      "trial_index": 6,
      "time_elapsed": 70296,
      "internal_node_id": "0.0-3.0-3.0",
      "responseType": "finish",
      "participantID": "p2huldllhaumlvcoel54zuwz635m3w3t",
      "conditionNumber": 2
    },
    {
      "rt": null,
      "stimulus": "<blockquote>\n  <p>The next anagram will be shown to you in <strong>12 seconds</strong>. <br><br> The page will automatically advance to the next screen after 12 seconds.</p>\n</blockquote>",
      "key_press": null,
      "trial_type": "html-keyboard-response",
      "trial_index": 7,
      "time_elapsed": 82302,
      "internal_node_id": "0.0-3.0-4.0",
      "responseType": "finish",
      "participantID": "p2huldllhaumlvcoel54zuwz635m3w3t",
      "conditionNumber": 2
    },
    {
      "rt": null,
      "stimulus": "<blockquote>\n  <h1 id=\"udalrbe\">UDALRBE</h1>\n  <p><br></p>\n</blockquote>",
      "key_press": null,
      "trial_type": "html-keyboard-response",
      "trial_index": 8,
      "time_elapsed": 92305,
      "internal_node_id": "0.0-3.0-5.0",
      "responseType": "finish",
      "participantID": "p2huldllhaumlvcoel54zuwz635m3w3t",
      "conditionNumber": 2
    },
    {
      "rt": 2600,
      "responses": "{\"Q0\":1}",
      "trial_type": "survey-likert",
      "trial_index": 9,
      "time_elapsed": 94907,
      "internal_node_id": "0.0-3.0-6.0",
      "responseType": "finish",
      "participantID": "p2huldllhaumlvcoel54zuwz635m3w3t",
      "conditionNumber": 2
    },
    {
      "rt": 3088,
      "responses": "{\"Q0\":3}",
      "trial_type": "survey-likert",
      "trial_index": 10,
      "time_elapsed": 97996,
      "internal_node_id": "0.0-3.0-7.0",
      "responseType": "finish",
      "participantID": "p2huldllhaumlvcoel54zuwz635m3w3t",
      "conditionNumber": 2
    },
    {
      "rt": null,
      "stimulus": "<blockquote>\n  <p>The next anagram will be shown to you in <strong>12 seconds</strong>. <br><br> The page will automatically advance to the next screen after 12 seconds.</p>\n</blockquote>",
      "key_press": null,
      "trial_type": "html-keyboard-response",
      "trial_index": 11,
      "time_elapsed": 110002,
      "internal_node_id": "0.0-3.0-8.0",
      "responseType": "finish",
      "participantID": "p2huldllhaumlvcoel54zuwz635m3w3t",
      "conditionNumber": 2
    },
    {
      "rt": null,
      "stimulus": "<blockquote>\n  <h1 id=\"aneplix\">ANEPLIX</h1>\n  <p><br></p>\n</blockquote>",
      "key_press": null,
      "trial_type": "html-keyboard-response",
      "trial_index": 12,
      "time_elapsed": 120004,
      "internal_node_id": "0.0-3.0-9.0",
      "responseType": "finish",
      "participantID": "p2huldllhaumlvcoel54zuwz635m3w3t",
      "conditionNumber": 2
    },
    {
      "rt": 2670,
      "responses": "{\"Q0\":0}",
      "trial_type": "survey-likert",
      "trial_index": 13,
      "time_elapsed": 122675,
      "internal_node_id": "0.0-3.0-10.0",
      "responseType": "finish",
      "participantID": "p2huldllhaumlvcoel54zuwz635m3w3t",
      "conditionNumber": 2
    },
    {
      "rt": 1934,
      "responses": "{\"Q0\":0}",
      "trial_type": "survey-likert",
      "trial_index": 14,
      "time_elapsed": 124611,
      "internal_node_id": "0.0-3.0-11.0",
      "responseType": "finish",
      "participantID": "p2huldllhaumlvcoel54zuwz635m3w3t",
      "conditionNumber": 2
    },
    {
      "rt": null,
      "stimulus": "<blockquote>\n  <p>The next anagram will be shown to you in <strong>12 seconds</strong>. <br><br> The page will automatically advance to the next screen after 12 seconds.</p>\n</blockquote>",
      "key_press": null,
      "trial_type": "html-keyboard-response",
      "trial_index": 15,
      "time_elapsed": 136617,
      "internal_node_id": "0.0-3.0-12.0",
      "responseType": "finish",
      "participantID": "p2huldllhaumlvcoel54zuwz635m3w3t",
      "conditionNumber": 2
    },
    {
      "rt": null,
      "stimulus": "<blockquote>\n  <h1 id=\"hnatuyg\">HNATUYG</h1>\n  <p><br></p>\n</blockquote>",
      "key_press": null,
      "trial_type": "html-keyboard-response",
      "trial_index": 16,
      "time_elapsed": 146622,
      "internal_node_id": "0.0-3.0-13.0",
      "responseType": "finish",
      "participantID": "p2huldllhaumlvcoel54zuwz635m3w3t",
      "conditionNumber": 2
    },
    {
      "rt": 1949,
      "responses": "{\"Q0\":0}",
      "trial_type": "survey-likert",
      "trial_index": 17,
      "time_elapsed": 148573,
      "internal_node_id": "0.0-3.0-14.0",
      "responseType": "finish",
      "participantID": "p2huldllhaumlvcoel54zuwz635m3w3t",
      "conditionNumber": 2
    },
    {
      "rt": 2031,
      "responses": "{\"Q0\":0}",
      "trial_type": "survey-likert",
      "trial_index": 18,
      "time_elapsed": 150606,
      "internal_node_id": "0.0-3.0-15.0",
      "responseType": "finish",
      "participantID": "p2huldllhaumlvcoel54zuwz635m3w3t",
      "conditionNumber": 2
    },
    {
      "rt": null,
      "stimulus": "<blockquote>\n  <p>The next anagram will be shown to you in <strong>12 seconds</strong>. <br><br> The page will automatically advance to the next screen after 12 seconds.</p>\n</blockquote>",
      "key_press": null,
      "trial_type": "html-keyboard-response",
      "trial_index": 19,
      "time_elapsed": 162612,
      "internal_node_id": "0.0-3.0-16.0",
      "responseType": "finish",
      "participantID": "p2huldllhaumlvcoel54zuwz635m3w3t",
      "conditionNumber": 2
    },
    {
      "rt": null,
      "stimulus": "<blockquote>\n  <h1 id=\"knig\">KNIG</h1>\n  <p><br></p>\n</blockquote>",
      "key_press": null,
      "trial_type": "html-keyboard-response",
      "trial_index": 20,
      "time_elapsed": 172614,
      "internal_node_id": "0.0-3.0-17.0",
      "responseType": "finish",
      "participantID": "p2huldllhaumlvcoel54zuwz635m3w3t",
      "conditionNumber": 2
    },
    {
      "rt": 3826,
      "responses": "{\"Q0\":1}",
      "trial_type": "survey-likert",
      "trial_index": 21,
      "time_elapsed": 176442,
      "internal_node_id": "0.0-4.0-0.0",
      "responseType": "finish",
      "participantID": "p2huldllhaumlvcoel54zuwz635m3w3t",
      "conditionNumber": 2
    },
    {
      "rt": 4373,
      "responses": "{\"Q0\":6}",
      "trial_type": "survey-likert",
      "trial_index": 22,
      "time_elapsed": 180818,
      "internal_node_id": "0.0-4.0-0.1",
      "responseType": "finish",
      "participantID": "p2huldllhaumlvcoel54zuwz635m3w3t",
      "conditionNumber": 2
    }
  ],
  "__v": 0
},{
  "_id": {
    "$oid": "61e0ba7ac104be000454d6ef"
  },
  "data": [
    {
      "rt": 9363,
      "responses": "{\"Q0\":\" I consent to participate\"}",
      "trial_type": "survey-multi-choice",
      "trial_index": 0,
      "time_elapsed": 9379,
      "internal_node_id": "0.0-0.0",
      "responseType": "finish",
      "participantID": "cj3hyry4jbezbyrh4v5c4oz0b8u2940y",
      "conditionNumber": 2
    },
    {
      "trial_type": "call-function",
      "trial_index": 1,
      "time_elapsed": 9387,
      "internal_node_id": "0.0-1.0",
      "responseType": "finish",
      "participantID": "cj3hyry4jbezbyrh4v5c4oz0b8u2940y",
      "conditionNumber": 2
    },
    {
      "view_history": "[{\"page_index\":0,\"viewing_time\":2006},{\"page_index\":1,\"viewing_time\":8507},{\"page_index\":2,\"viewing_time\":4433}]",
      "rt": 14946,
      "trial_type": "instructions",
      "trial_index": 2,
      "time_elapsed": 24334,
      "internal_node_id": "0.0-2.0",
      "responseType": "finish",
      "participantID": "cj3hyry4jbezbyrh4v5c4oz0b8u2940y",
      "conditionNumber": 2
    },
    {
      "rt": null,
      "stimulus": "<blockquote>\n  <p>The next anagram will be shown to you in <strong>12 seconds</strong>. <br><br> The page will automatically advance to the next screen after 12 seconds.</p>\n</blockquote>",
      "key_press": null,
      "trial_type": "html-keyboard-response",
      "trial_index": 3,
      "time_elapsed": 36339,
      "internal_node_id": "0.0-3.0-0.0",
      "responseType": "finish",
      "participantID": "cj3hyry4jbezbyrh4v5c4oz0b8u2940y",
      "conditionNumber": 2
    },
    {
      "rt": null,
      "stimulus": "<blockquote>\n  <h1 id=\"iocnrag\">IOCNRAG</h1>\n  <p><br></p>\n</blockquote>",
      "key_press": null,
      "trial_type": "html-keyboard-response",
      "trial_index": 4,
      "time_elapsed": 46341,
      "internal_node_id": "0.0-3.0-1.0",
      "responseType": "finish",
      "participantID": "cj3hyry4jbezbyrh4v5c4oz0b8u2940y",
      "conditionNumber": 2
    },
    {
      "rt": 4442,
      "responses": "{\"Q0\":0}",
      "trial_type": "survey-likert",
      "trial_index": 5,
      "time_elapsed": 50786,
      "internal_node_id": "0.0-3.0-2.0",
      "responseType": "finish",
      "participantID": "cj3hyry4jbezbyrh4v5c4oz0b8u2940y",
      "conditionNumber": 2
    },
    {
      "rt": 7899,
      "responses": "{\"Q0\":0}",
      "trial_type": "survey-likert",
      "trial_index": 6,
      "time_elapsed": 58693,
      "internal_node_id": "0.0-3.0-3.0",
      "responseType": "finish",
      "participantID": "cj3hyry4jbezbyrh4v5c4oz0b8u2940y",
      "conditionNumber": 2
    },
    {
      "rt": null,
      "stimulus": "<blockquote>\n  <p>The next anagram will be shown to you in <strong>12 seconds</strong>. <br><br> The page will automatically advance to the next screen after 12 seconds.</p>\n</blockquote>",
      "key_press": null,
      "trial_type": "html-keyboard-response",
      "trial_index": 7,
      "time_elapsed": 70698,
      "internal_node_id": "0.0-3.0-4.0",
      "responseType": "finish",
      "participantID": "cj3hyry4jbezbyrh4v5c4oz0b8u2940y",
      "conditionNumber": 2
    },
    {
      "rt": null,
      "stimulus": "<blockquote>\n  <h1 id=\"udalrbe\">UDALRBE</h1>\n  <p><br></p>\n</blockquote>",
      "key_press": null,
      "trial_type": "html-keyboard-response",
      "trial_index": 8,
      "time_elapsed": 80701,
      "internal_node_id": "0.0-3.0-5.0",
      "responseType": "finish",
      "participantID": "cj3hyry4jbezbyrh4v5c4oz0b8u2940y",
      "conditionNumber": 2
    },
    {
      "rt": 3184,
      "responses": "{\"Q0\":1}",
      "trial_type": "survey-likert",
      "trial_index": 9,
      "time_elapsed": 83887,
      "internal_node_id": "0.0-3.0-6.0",
      "responseType": "finish",
      "participantID": "cj3hyry4jbezbyrh4v5c4oz0b8u2940y",
      "conditionNumber": 2
    },
    {
      "rt": 5671,
      "responses": "{\"Q0\":4}",
      "trial_type": "survey-likert",
      "trial_index": 10,
      "time_elapsed": 89561,
      "internal_node_id": "0.0-3.0-7.0",
      "responseType": "finish",
      "participantID": "cj3hyry4jbezbyrh4v5c4oz0b8u2940y",
      "conditionNumber": 2
    },
    {
      "rt": null,
      "stimulus": "<blockquote>\n  <p>The next anagram will be shown to you in <strong>12 seconds</strong>. <br><br> The page will automatically advance to the next screen after 12 seconds.</p>\n</blockquote>",
      "key_press": null,
      "trial_type": "html-keyboard-response",
      "trial_index": 11,
      "time_elapsed": 101567,
      "internal_node_id": "0.0-3.0-8.0",
      "responseType": "finish",
      "participantID": "cj3hyry4jbezbyrh4v5c4oz0b8u2940y",
      "conditionNumber": 2
    },
    {
      "rt": null,
      "stimulus": "<blockquote>\n  <h1 id=\"aneplix\">ANEPLIX</h1>\n  <p><br></p>\n</blockquote>",
      "key_press": null,
      "trial_type": "html-keyboard-response",
      "trial_index": 12,
      "time_elapsed": 111568,
      "internal_node_id": "0.0-3.0-9.0",
      "responseType": "finish",
      "participantID": "cj3hyry4jbezbyrh4v5c4oz0b8u2940y",
      "conditionNumber": 2
    },
    {
      "rt": 2981,
      "responses": "{\"Q0\":0}",
      "trial_type": "survey-likert",
      "trial_index": 13,
      "time_elapsed": 114552,
      "internal_node_id": "0.0-3.0-10.0",
      "responseType": "finish",
      "participantID": "cj3hyry4jbezbyrh4v5c4oz0b8u2940y",
      "conditionNumber": 2
    },
    {
      "rt": 5293,
      "responses": "{\"Q0\":0}",
      "trial_type": "survey-likert",
      "trial_index": 14,
      "time_elapsed": 119849,
      "internal_node_id": "0.0-3.0-11.0",
      "responseType": "finish",
      "participantID": "cj3hyry4jbezbyrh4v5c4oz0b8u2940y",
      "conditionNumber": 2
    },
    {
      "rt": null,
      "stimulus": "<blockquote>\n  <p>The next anagram will be shown to you in <strong>12 seconds</strong>. <br><br> The page will automatically advance to the next screen after 12 seconds.</p>\n</blockquote>",
      "key_press": null,
      "trial_type": "html-keyboard-response",
      "trial_index": 15,
      "time_elapsed": 131854,
      "internal_node_id": "0.0-3.0-12.0",
      "responseType": "finish",
      "participantID": "cj3hyry4jbezbyrh4v5c4oz0b8u2940y",
      "conditionNumber": 2
    },
    {
      "rt": null,
      "stimulus": "<blockquote>\n  <h1 id=\"hnatuyg\">HNATUYG</h1>\n  <p><br></p>\n</blockquote>",
      "key_press": null,
      "trial_type": "html-keyboard-response",
      "trial_index": 16,
      "time_elapsed": 141855,
      "internal_node_id": "0.0-3.0-13.0",
      "responseType": "finish",
      "participantID": "cj3hyry4jbezbyrh4v5c4oz0b8u2940y",
      "conditionNumber": 2
    },
    {
      "rt": 3049,
      "responses": "{\"Q0\":0}",
      "trial_type": "survey-likert",
      "trial_index": 17,
      "time_elapsed": 144906,
      "internal_node_id": "0.0-3.0-14.0",
      "responseType": "finish",
      "participantID": "cj3hyry4jbezbyrh4v5c4oz0b8u2940y",
      "conditionNumber": 2
    },
    {
      "rt": 3305,
      "responses": "{\"Q0\":0}",
      "trial_type": "survey-likert",
      "trial_index": 18,
      "time_elapsed": 148217,
      "internal_node_id": "0.0-3.0-15.0",
      "responseType": "finish",
      "participantID": "cj3hyry4jbezbyrh4v5c4oz0b8u2940y",
      "conditionNumber": 2
    },
    {
      "rt": null,
      "stimulus": "<blockquote>\n  <p>The next anagram will be shown to you in <strong>12 seconds</strong>. <br><br> The page will automatically advance to the next screen after 12 seconds.</p>\n</blockquote>",
      "key_press": null,
      "trial_type": "html-keyboard-response",
      "trial_index": 19,
      "time_elapsed": 160220,
      "internal_node_id": "0.0-3.0-16.0",
      "responseType": "finish",
      "participantID": "cj3hyry4jbezbyrh4v5c4oz0b8u2940y",
      "conditionNumber": 2
    },
    {
      "rt": null,
      "stimulus": "<blockquote>\n  <h1 id=\"knig\">KNIG</h1>\n  <p><br></p>\n</blockquote>",
      "key_press": null,
      "trial_type": "html-keyboard-response",
      "trial_index": 20,
      "time_elapsed": 170222,
      "internal_node_id": "0.0-3.0-17.0",
      "responseType": "finish",
      "participantID": "cj3hyry4jbezbyrh4v5c4oz0b8u2940y",
      "conditionNumber": 2
    },
    {
      "rt": 3455,
      "responses": "{\"Q0\":1}",
      "trial_type": "survey-likert",
      "trial_index": 21,
      "time_elapsed": 173680,
      "internal_node_id": "0.0-4.0-0.0",
      "responseType": "finish",
      "participantID": "cj3hyry4jbezbyrh4v5c4oz0b8u2940y",
      "conditionNumber": 2
    },
    {
      "rt": 8249,
      "responses": "{\"Q0\":6}",
      "trial_type": "survey-likert",
      "trial_index": 22,
      "time_elapsed": 181934,
      "internal_node_id": "0.0-4.0-0.1",
      "responseType": "finish",
      "participantID": "cj3hyry4jbezbyrh4v5c4oz0b8u2940y",
      "conditionNumber": 2
    }
  ],
  "__v": 0
},{
  "_id": {
    "$oid": "61e0bac0c104be000454d6f0"
  },
  "data": [
    {
      "rt": 12255,
      "responses": "{\"Q0\":\" I consent to participate\"}",
      "trial_type": "survey-multi-choice",
      "trial_index": 0,
      "time_elapsed": 12261,
      "internal_node_id": "0.0-0.0",
      "responseType": "finish",
      "participantID": "l7n5aszj93zs0cyl2yjddcwxlf1v6889",
      "conditionNumber": 3
    },
    {
      "trial_type": "call-function",
      "trial_index": 1,
      "time_elapsed": 12271,
      "internal_node_id": "0.0-1.0",
      "responseType": "finish",
      "participantID": "l7n5aszj93zs0cyl2yjddcwxlf1v6889",
      "conditionNumber": 3
    },
    {
      "view_history": "[{\"page_index\":0,\"viewing_time\":1948},{\"page_index\":1,\"viewing_time\":11242},{\"page_index\":2,\"viewing_time\":6478}]",
      "rt": 19669,
      "trial_type": "instructions",
      "trial_index": 2,
      "time_elapsed": 31940,
      "internal_node_id": "0.0-2.0",
      "responseType": "finish",
      "participantID": "l7n5aszj93zs0cyl2yjddcwxlf1v6889",
      "conditionNumber": 3
    },
    {
      "rt": null,
      "stimulus": "<blockquote>\n  <p>The next anagram will be shown to you in <strong>12 seconds</strong>. <br><br> The page will automatically advance to the next screen after 12 seconds.</p>\n</blockquote>",
      "key_press": null,
      "trial_type": "html-keyboard-response",
      "trial_index": 3,
      "time_elapsed": 43946,
      "internal_node_id": "0.0-3.0-0.0",
      "responseType": "finish",
      "participantID": "l7n5aszj93zs0cyl2yjddcwxlf1v6889",
      "conditionNumber": 3
    },
    {
      "rt": null,
      "stimulus": "<blockquote>\n  <h1 id=\"udalrbe\">UDALRBE</h1>\n  <p><br></p>\n</blockquote>",
      "key_press": null,
      "trial_type": "html-keyboard-response",
      "trial_index": 4,
      "time_elapsed": 53949,
      "internal_node_id": "0.0-3.0-1.0",
      "responseType": "finish",
      "participantID": "l7n5aszj93zs0cyl2yjddcwxlf1v6889",
      "conditionNumber": 3
    },
    {
      "rt": 2232,
      "responses": "{\"Q0\":0}",
      "trial_type": "survey-likert",
      "trial_index": 5,
      "time_elapsed": 56187,
      "internal_node_id": "0.0-3.0-2.0",
      "responseType": "finish",
      "participantID": "l7n5aszj93zs0cyl2yjddcwxlf1v6889",
      "conditionNumber": 3
    },
    {
      "rt": 11152,
      "responses": "{\"Q0\":0}",
      "trial_type": "survey-likert",
      "trial_index": 6,
      "time_elapsed": 67345,
      "internal_node_id": "0.0-3.0-3.0",
      "responseType": "finish",
      "participantID": "l7n5aszj93zs0cyl2yjddcwxlf1v6889",
      "conditionNumber": 3
    },
    {
      "rt": null,
      "stimulus": "<blockquote>\n  <p>The next anagram will be shown to you in <strong>12 seconds</strong>. <br><br> The page will automatically advance to the next screen after 12 seconds.</p>\n</blockquote>",
      "key_press": null,
      "trial_type": "html-keyboard-response",
      "trial_index": 7,
      "time_elapsed": 79349,
      "internal_node_id": "0.0-3.0-4.0",
      "responseType": "finish",
      "participantID": "l7n5aszj93zs0cyl2yjddcwxlf1v6889",
      "conditionNumber": 3
    },
    {
      "rt": null,
      "stimulus": "<blockquote>\n  <h1 id=\"eurndf\">EURNDF</h1>\n  <p><br></p>\n</blockquote>",
      "key_press": null,
      "trial_type": "html-keyboard-response",
      "trial_index": 8,
      "time_elapsed": 89352,
      "internal_node_id": "0.0-3.0-5.0",
      "responseType": "finish",
      "participantID": "l7n5aszj93zs0cyl2yjddcwxlf1v6889",
      "conditionNumber": 3
    },
    {
      "rt": 3325,
      "responses": "{\"Q0\":0}",
      "trial_type": "survey-likert",
      "trial_index": 9,
      "time_elapsed": 92680,
      "internal_node_id": "0.0-3.0-6.0",
      "responseType": "finish",
      "participantID": "l7n5aszj93zs0cyl2yjddcwxlf1v6889",
      "conditionNumber": 3
    },
    {
      "rt": 2398,
      "responses": "{\"Q0\":0}",
      "trial_type": "survey-likert",
      "trial_index": 10,
      "time_elapsed": 95082,
      "internal_node_id": "0.0-3.0-7.0",
      "responseType": "finish",
      "participantID": "l7n5aszj93zs0cyl2yjddcwxlf1v6889",
      "conditionNumber": 3
    },
    {
      "rt": null,
      "stimulus": "<blockquote>\n  <p>The next anagram will be shown to you in <strong>12 seconds</strong>. <br><br> The page will automatically advance to the next screen after 12 seconds.</p>\n</blockquote>",
      "key_press": null,
      "trial_type": "html-keyboard-response",
      "trial_index": 11,
      "time_elapsed": 107086,
      "internal_node_id": "0.0-3.0-8.0",
      "responseType": "finish",
      "participantID": "l7n5aszj93zs0cyl2yjddcwxlf1v6889",
      "conditionNumber": 3
    },
    {
      "rt": null,
      "stimulus": "<blockquote>\n  <h1 id=\"aneplix\">ANEPLIX</h1>\n  <p><br></p>\n</blockquote>",
      "key_press": null,
      "trial_type": "html-keyboard-response",
      "trial_index": 12,
      "time_elapsed": 117090,
      "internal_node_id": "0.0-3.0-9.0",
      "responseType": "finish",
      "participantID": "l7n5aszj93zs0cyl2yjddcwxlf1v6889",
      "conditionNumber": 3
    },
    {
      "rt": 1788,
      "responses": "{\"Q0\":0}",
      "trial_type": "survey-likert",
      "trial_index": 13,
      "time_elapsed": 118883,
      "internal_node_id": "0.0-3.0-10.0",
      "responseType": "finish",
      "participantID": "l7n5aszj93zs0cyl2yjddcwxlf1v6889",
      "conditionNumber": 3
    },
    {
      "rt": 2231,
      "responses": "{\"Q0\":0}",
      "trial_type": "survey-likert",
      "trial_index": 14,
      "time_elapsed": 121118,
      "internal_node_id": "0.0-3.0-11.0",
      "responseType": "finish",
      "participantID": "l7n5aszj93zs0cyl2yjddcwxlf1v6889",
      "conditionNumber": 3
    },
    {
      "rt": null,
      "stimulus": "<blockquote>\n  <p>The next anagram will be shown to you in <strong>12 seconds</strong>. <br><br> The page will automatically advance to the next screen after 12 seconds.</p>\n</blockquote>",
      "key_press": null,
      "trial_type": "html-keyboard-response",
      "trial_index": 15,
      "time_elapsed": 133128,
      "internal_node_id": "0.0-3.0-12.0",
      "responseType": "finish",
      "participantID": "l7n5aszj93zs0cyl2yjddcwxlf1v6889",
      "conditionNumber": 3
    },
    {
      "rt": null,
      "stimulus": "<blockquote>\n  <h1 id=\"iocnrag\">IOCNRAG</h1>\n  <p><br></p>\n</blockquote>",
      "key_press": null,
      "trial_type": "html-keyboard-response",
      "trial_index": 16,
      "time_elapsed": 143132,
      "internal_node_id": "0.0-3.0-13.0",
      "responseType": "finish",
      "participantID": "l7n5aszj93zs0cyl2yjddcwxlf1v6889",
      "conditionNumber": 3
    },
    {
      "rt": 2966,
      "responses": "{\"Q0\":0}",
      "trial_type": "survey-likert",
      "trial_index": 17,
      "time_elapsed": 146102,
      "internal_node_id": "0.0-3.0-14.0",
      "responseType": "finish",
      "participantID": "l7n5aszj93zs0cyl2yjddcwxlf1v6889",
      "conditionNumber": 3
    },
    {
      "rt": 1975,
      "responses": "{\"Q0\":0}",
      "trial_type": "survey-likert",
      "trial_index": 18,
      "time_elapsed": 148087,
      "internal_node_id": "0.0-3.0-15.0",
      "responseType": "finish",
      "participantID": "l7n5aszj93zs0cyl2yjddcwxlf1v6889",
      "conditionNumber": 3
    },
    {
      "rt": null,
      "stimulus": "<blockquote>\n  <p>The next anagram will be shown to you in <strong>12 seconds</strong>. <br><br> The page will automatically advance to the next screen after 12 seconds.</p>\n</blockquote>",
      "key_press": null,
      "trial_type": "html-keyboard-response",
      "trial_index": 19,
      "time_elapsed": 150098,
      "internal_node_id": "0.0-3.0-16.0",
      "responseType": "finish",
      "participantID": "l7n5aszj93zs0cyl2yjddcwxlf1v6889",
      "conditionNumber": 3
    },
    {
      "rt": null,
      "stimulus": "<blockquote>\n  <h1 id=\"knig\">KNIG</h1>\n  <p><br></p>\n</blockquote>",
      "key_press": null,
      "trial_type": "html-keyboard-response",
      "trial_index": 20,
      "time_elapsed": 160101,
      "internal_node_id": "0.0-3.0-17.0",
      "responseType": "finish",
      "participantID": "l7n5aszj93zs0cyl2yjddcwxlf1v6889",
      "conditionNumber": 3
    },
    {
      "rt": 1914,
      "responses": "{\"Q0\":1}",
      "trial_type": "survey-likert",
      "trial_index": 21,
      "time_elapsed": 162018,
      "internal_node_id": "0.0-4.0-0.0",
      "responseType": "finish",
      "participantID": "l7n5aszj93zs0cyl2yjddcwxlf1v6889",
      "conditionNumber": 3
    },
    {
      "rt": 5614,
      "responses": "{\"Q0\":6}",
      "trial_type": "survey-likert",
      "trial_index": 22,
      "time_elapsed": 167646,
      "internal_node_id": "0.0-4.0-0.1",
      "responseType": "finish",
      "participantID": "l7n5aszj93zs0cyl2yjddcwxlf1v6889",
      "conditionNumber": 3
    }
  ],
  "__v": 0
},{
  "_id": {
    "$oid": "61e0bac4c104be000454d6f1"
  },
  "data": [
    {
      "rt": 13265,
      "responses": "{\"Q0\":\" I consent to participate\"}",
      "trial_type": "survey-multi-choice",
      "trial_index": 0,
      "time_elapsed": 13276,
      "internal_node_id": "0.0-0.0",
      "responseType": "finish",
      "participantID": "thkzevpl1jh7zoeorfjlhbrzgxsknq3x",
      "conditionNumber": 1
    },
    {
      "trial_type": "call-function",
      "trial_index": 1,
      "time_elapsed": 13282,
      "internal_node_id": "0.0-1.0",
      "responseType": "finish",
      "participantID": "thkzevpl1jh7zoeorfjlhbrzgxsknq3x",
      "conditionNumber": 1
    },
    {
      "view_history": "[{\"page_index\":0,\"viewing_time\":3934},{\"page_index\":1,\"viewing_time\":11016},{\"page_index\":2,\"viewing_time\":12055}]",
      "rt": 27006,
      "trial_type": "instructions",
      "trial_index": 2,
      "time_elapsed": 40290,
      "internal_node_id": "0.0-2.0",
      "responseType": "finish",
      "participantID": "thkzevpl1jh7zoeorfjlhbrzgxsknq3x",
      "conditionNumber": 1
    },
    {
      "rt": null,
      "stimulus": "<blockquote>\n  <p>The next anagram will be shown to you in <strong>12 seconds</strong>. <br><br> The page will automatically advance to the next screen after 12 seconds.</p>\n</blockquote>",
      "key_press": null,
      "trial_type": "html-keyboard-response",
      "trial_index": 3,
      "time_elapsed": 52294,
      "internal_node_id": "0.0-3.0-0.0",
      "responseType": "finish",
      "participantID": "thkzevpl1jh7zoeorfjlhbrzgxsknq3x",
      "conditionNumber": 1
    },
    {
      "rt": null,
      "stimulus": "<blockquote>\n  <h1 id=\"fodo\">FODO</h1>\n  <p><br></p>\n</blockquote>",
      "key_press": null,
      "trial_type": "html-keyboard-response",
      "trial_index": 4,
      "time_elapsed": 62304,
      "internal_node_id": "0.0-3.0-1.0",
      "responseType": "finish",
      "participantID": "thkzevpl1jh7zoeorfjlhbrzgxsknq3x",
      "conditionNumber": 1
    },
    {
      "rt": 6282,
      "responses": "{\"Q0\":1}",
      "trial_type": "survey-likert",
      "trial_index": 5,
      "time_elapsed": 68590,
      "internal_node_id": "0.0-3.0-2.0",
      "responseType": "finish",
      "participantID": "thkzevpl1jh7zoeorfjlhbrzgxsknq3x",
      "conditionNumber": 1
    },
    {
      "rt": 12023,
      "responses": "{\"Q0\":4}",
      "trial_type": "survey-likert",
      "trial_index": 6,
      "time_elapsed": 80615,
      "internal_node_id": "0.0-3.0-3.0",
      "responseType": "finish",
      "participantID": "thkzevpl1jh7zoeorfjlhbrzgxsknq3x",
      "conditionNumber": 1
    },
    {
      "rt": null,
      "stimulus": "<blockquote>\n  <p>The next anagram will be shown to you in <strong>12 seconds</strong>. <br><br> The page will automatically advance to the next screen after 12 seconds.</p>\n</blockquote>",
      "key_press": null,
      "trial_type": "html-keyboard-response",
      "trial_index": 7,
      "time_elapsed": 92618,
      "internal_node_id": "0.0-3.0-4.0",
      "responseType": "finish",
      "participantID": "thkzevpl1jh7zoeorfjlhbrzgxsknq3x",
      "conditionNumber": 1
    },
    {
      "rt": null,
      "stimulus": "<blockquote>\n  <h1 id=\"pitn\">PITN</h1>\n  <p><br></p>\n</blockquote>",
      "key_press": null,
      "trial_type": "html-keyboard-response",
      "trial_index": 8,
      "time_elapsed": 102624,
      "internal_node_id": "0.0-3.0-5.0",
      "responseType": "finish",
      "participantID": "thkzevpl1jh7zoeorfjlhbrzgxsknq3x",
      "conditionNumber": 1
    },
    {
      "rt": 2916,
      "responses": "{\"Q0\":1}",
      "trial_type": "survey-likert",
      "trial_index": 9,
      "time_elapsed": 105542,
      "internal_node_id": "0.0-3.0-6.0",
      "responseType": "finish",
      "participantID": "thkzevpl1jh7zoeorfjlhbrzgxsknq3x",
      "conditionNumber": 1
    },
    {
      "rt": 7434,
      "responses": "{\"Q0\":3}",
      "trial_type": "survey-likert",
      "trial_index": 10,
      "time_elapsed": 112980,
      "internal_node_id": "0.0-3.0-7.0",
      "responseType": "finish",
      "participantID": "thkzevpl1jh7zoeorfjlhbrzgxsknq3x",
      "conditionNumber": 1
    },
    {
      "rt": null,
      "stimulus": "<blockquote>\n  <p>The next anagram will be shown to you in <strong>12 seconds</strong>. <br><br> The page will automatically advance to the next screen after 12 seconds.</p>\n</blockquote>",
      "key_press": null,
      "trial_type": "html-keyboard-response",
      "trial_index": 11,
      "time_elapsed": 124982,
      "internal_node_id": "0.0-3.0-8.0",
      "responseType": "finish",
      "participantID": "thkzevpl1jh7zoeorfjlhbrzgxsknq3x",
      "conditionNumber": 1
    },
    {
      "rt": null,
      "stimulus": "<blockquote>\n  <h1 id=\"fidn\">FIDN</h1>\n  <p><br></p>\n</blockquote>",
      "key_press": null,
      "trial_type": "html-keyboard-response",
      "trial_index": 12,
      "time_elapsed": 134985,
      "internal_node_id": "0.0-3.0-9.0",
      "responseType": "finish",
      "participantID": "thkzevpl1jh7zoeorfjlhbrzgxsknq3x",
      "conditionNumber": 1
    },
    {
      "rt": 3325,
      "responses": "{\"Q0\":1}",
      "trial_type": "survey-likert",
      "trial_index": 13,
      "time_elapsed": 138314,
      "internal_node_id": "0.0-3.0-10.0",
      "responseType": "finish",
      "participantID": "thkzevpl1jh7zoeorfjlhbrzgxsknq3x",
      "conditionNumber": 1
    },
    {
      "rt": 4311,
      "responses": "{\"Q0\":3}",
      "trial_type": "survey-likert",
      "trial_index": 14,
      "time_elapsed": 142627,
      "internal_node_id": "0.0-3.0-11.0",
      "responseType": "finish",
      "participantID": "thkzevpl1jh7zoeorfjlhbrzgxsknq3x",
      "conditionNumber": 1
    },
    {
      "rt": null,
      "stimulus": "<blockquote>\n  <p>The next anagram will be shown to you in <strong>12 seconds</strong>. <br><br> The page will automatically advance to the next screen after 12 seconds.</p>\n</blockquote>",
      "key_press": null,
      "trial_type": "html-keyboard-response",
      "trial_index": 15,
      "time_elapsed": 154631,
      "internal_node_id": "0.0-3.0-12.0",
      "responseType": "finish",
      "participantID": "thkzevpl1jh7zoeorfjlhbrzgxsknq3x",
      "conditionNumber": 1
    },
    {
      "rt": null,
      "stimulus": "<blockquote>\n  <h1 id=\"betl\">BETL</h1>\n  <p><br></p>\n</blockquote>",
      "key_press": null,
      "trial_type": "html-keyboard-response",
      "trial_index": 16,
      "time_elapsed": 164639,
      "internal_node_id": "0.0-3.0-13.0",
      "responseType": "finish",
      "participantID": "thkzevpl1jh7zoeorfjlhbrzgxsknq3x",
      "conditionNumber": 1
    },
    {
      "rt": 2704,
      "responses": "{\"Q0\":1}",
      "trial_type": "survey-likert",
      "trial_index": 17,
      "time_elapsed": 167346,
      "internal_node_id": "0.0-3.0-14.0",
      "responseType": "finish",
      "participantID": "thkzevpl1jh7zoeorfjlhbrzgxsknq3x",
      "conditionNumber": 1
    },
    {
      "rt": 4037,
      "responses": "{\"Q0\":3}",
      "trial_type": "survey-likert",
      "trial_index": 18,
      "time_elapsed": 171386,
      "internal_node_id": "0.0-3.0-15.0",
      "responseType": "finish",
      "participantID": "thkzevpl1jh7zoeorfjlhbrzgxsknq3x",
      "conditionNumber": 1
    },
    {
      "rt": null,
      "stimulus": "<blockquote>\n  <p>The next anagram will be shown to you in <strong>12 seconds</strong>. <br><br> The page will automatically advance to the next screen after 12 seconds.</p>\n</blockquote>",
      "key_press": null,
      "trial_type": "html-keyboard-response",
      "trial_index": 19,
      "time_elapsed": 173389,
      "internal_node_id": "0.0-3.0-16.0",
      "responseType": "finish",
      "participantID": "thkzevpl1jh7zoeorfjlhbrzgxsknq3x",
      "conditionNumber": 1
    },
    {
      "rt": null,
      "stimulus": "<blockquote>\n  <h1 id=\"glod\">GLOD</h1>\n  <p><br></p>\n</blockquote>",
      "key_press": null,
      "trial_type": "html-keyboard-response",
      "trial_index": 20,
      "time_elapsed": 183404,
      "internal_node_id": "0.0-3.0-17.0",
      "responseType": "finish",
      "participantID": "thkzevpl1jh7zoeorfjlhbrzgxsknq3x",
      "conditionNumber": 1
    },
    {
      "rt": 3180,
      "responses": "{\"Q0\":1}",
      "trial_type": "survey-likert",
      "trial_index": 21,
      "time_elapsed": 186589,
      "internal_node_id": "0.0-4.0-0.0",
      "responseType": "finish",
      "participantID": "thkzevpl1jh7zoeorfjlhbrzgxsknq3x",
      "conditionNumber": 1
    },
    {
      "rt": 3721,
      "responses": "{\"Q0\":3}",
      "trial_type": "survey-likert",
      "trial_index": 22,
      "time_elapsed": 190313,
      "internal_node_id": "0.0-4.0-0.1",
      "responseType": "finish",
      "participantID": "thkzevpl1jh7zoeorfjlhbrzgxsknq3x",
      "conditionNumber": 1
    }
  ],
  "__v": 0
},{
  "_id": {
    "$oid": "61e0bad2c104be000454d6f2"
  },
  "data": {
    "responseType": "start",
    "participantID": "qjyyxujx8mawmpd10by0nspvpazec5va",
    "conditionNumber": 3,
    "anagrams_seen": ">#GLOD\n<br>"
  },
  "__v": 0
},{
  "_id": {
    "$oid": "61e0bae1c104be000454d6f3"
  },
  "data": {
    "responseType": "start",
    "participantID": "l51p7mnue2zq4ydtdnj6bq9cf65s4bta",
    "conditionNumber": 3,
    "anagrams_seen": ">#KNIG\n<br>"
  },
  "__v": 0
},{
  "_id": {
    "$oid": "61e0baf8c104be000454d6f4"
  },
  "data": {
    "responseType": "start",
    "participantID": "fk3s5h9blez4g1ouh536wdstr2zoyzd4",
    "conditionNumber": 0,
    "anagrams_seen": ">#BLUK\n<br>"
  },
  "__v": 0
},{
  "_id": {
    "$oid": "61e0bb01c104be000454d6f5"
  },
  "data": {
    "responseType": "start",
    "participantID": "nex8fjl3tldh1zpzahg10l7lmmk8jef6",
    "conditionNumber": 3,
    "anagrams_seen": ">#GLOD\n<br>"
  },
  "__v": 0
},{
  "_id": {
    "$oid": "61e0bb3ac104be000454d6f6"
  },
  "data": {
    "responseType": "start",
    "participantID": "ya8ajlytxuag4hos6p4bo0oblldr81tb",
    "conditionNumber": 3,
    "anagrams_seen": ">#GLOD\n<br>"
  },
  "__v": 0
},{
  "_id": {
    "$oid": "61e0bb46c104be000454d6f7"
  },
  "data": {
    "responseType": "start",
    "participantID": "av6utvl7dxzw2sjybxmv2sqwcw3nehen",
    "conditionNumber": 2,
    "anagrams_seen": ">#BLUK\n<br>"
  },
  "__v": 0
},{
  "_id": {
    "$oid": "61e0bb4cc104be000454d6f8"
  },
  "data": {
    "responseType": "start",
    "participantID": "moubgwbfgk3oavmelorgdvpfhxr6tu53",
    "conditionNumber": 0,
    "anagrams_seen": ">#SONW\n<br>"
  },
  "__v": 0
},{
  "_id": {
    "$oid": "61e0bb88c104be000454d6f9"
  },
  "data": [
    {
      "rt": 12483,
      "responses": "{\"Q0\":\" I consent to participate\"}",
      "trial_type": "survey-multi-choice",
      "trial_index": 0,
      "time_elapsed": 12488,
      "internal_node_id": "0.0-0.0",
      "responseType": "finish",
      "participantID": "l51p7mnue2zq4ydtdnj6bq9cf65s4bta",
      "conditionNumber": 3
    },
    {
      "trial_type": "call-function",
      "trial_index": 1,
      "time_elapsed": 12497,
      "internal_node_id": "0.0-1.0",
      "responseType": "finish",
      "participantID": "l51p7mnue2zq4ydtdnj6bq9cf65s4bta",
      "conditionNumber": 3
    },
    {
      "view_history": "[{\"page_index\":0,\"viewing_time\":9014},{\"page_index\":1,\"viewing_time\":9514},{\"page_index\":2,\"viewing_time\":10503}]",
      "rt": 29031,
      "trial_type": "instructions",
      "trial_index": 2,
      "time_elapsed": 41528,
      "internal_node_id": "0.0-2.0",
      "responseType": "finish",
      "participantID": "l51p7mnue2zq4ydtdnj6bq9cf65s4bta",
      "conditionNumber": 3
    },
    {
      "rt": null,
      "stimulus": "<blockquote>\n  <p>The next anagram will be shown to you in <strong>12 seconds</strong>. <br><br> The page will automatically advance to the next screen after 12 seconds.</p>\n</blockquote>",
      "key_press": null,
      "trial_type": "html-keyboard-response",
      "trial_index": 3,
      "time_elapsed": 53541,
      "internal_node_id": "0.0-3.0-0.0",
      "responseType": "finish",
      "participantID": "l51p7mnue2zq4ydtdnj6bq9cf65s4bta",
      "conditionNumber": 3
    },
    {
      "rt": null,
      "stimulus": "<blockquote>\n  <h1 id=\"aneplix\">ANEPLIX</h1>\n  <p><br></p>\n</blockquote>",
      "key_press": null,
      "trial_type": "html-keyboard-response",
      "trial_index": 4,
      "time_elapsed": 63557,
      "internal_node_id": "0.0-3.0-1.0",
      "responseType": "finish",
      "participantID": "l51p7mnue2zq4ydtdnj6bq9cf65s4bta",
      "conditionNumber": 3
    },
    {
      "rt": 3642,
      "responses": "{\"Q0\":0}",
      "trial_type": "survey-likert",
      "trial_index": 5,
      "time_elapsed": 67202,
      "internal_node_id": "0.0-3.0-2.0",
      "responseType": "finish",
      "participantID": "l51p7mnue2zq4ydtdnj6bq9cf65s4bta",
      "conditionNumber": 3
    },
    {
      "rt": 8999,
      "responses": "{\"Q0\":0}",
      "trial_type": "survey-likert",
      "trial_index": 6,
      "time_elapsed": 76204,
      "internal_node_id": "0.0-3.0-3.0",
      "responseType": "finish",
      "participantID": "l51p7mnue2zq4ydtdnj6bq9cf65s4bta",
      "conditionNumber": 3
    },
    {
      "rt": null,
      "stimulus": "<blockquote>\n  <p>The next anagram will be shown to you in <strong>12 seconds</strong>. <br><br> The page will automatically advance to the next screen after 12 seconds.</p>\n</blockquote>",
      "key_press": null,
      "trial_type": "html-keyboard-response",
      "trial_index": 7,
      "time_elapsed": 88205,
      "internal_node_id": "0.0-3.0-4.0",
      "responseType": "finish",
      "participantID": "l51p7mnue2zq4ydtdnj6bq9cf65s4bta",
      "conditionNumber": 3
    },
    {
      "rt": null,
      "stimulus": "<blockquote>\n  <h1 id=\"udalrbe\">UDALRBE</h1>\n  <p><br></p>\n</blockquote>",
      "key_press": null,
      "trial_type": "html-keyboard-response",
      "trial_index": 8,
      "time_elapsed": 98218,
      "internal_node_id": "0.0-3.0-5.0",
      "responseType": "finish",
      "participantID": "l51p7mnue2zq4ydtdnj6bq9cf65s4bta",
      "conditionNumber": 3
    },
    {
      "rt": 4483,
      "responses": "{\"Q0\":0}",
      "trial_type": "survey-likert",
      "trial_index": 9,
      "time_elapsed": 102701,
      "internal_node_id": "0.0-3.0-6.0",
      "responseType": "finish",
      "participantID": "l51p7mnue2zq4ydtdnj6bq9cf65s4bta",
      "conditionNumber": 3
    },
    {
      "rt": 2860,
      "responses": "{\"Q0\":0}",
      "trial_type": "survey-likert",
      "trial_index": 10,
      "time_elapsed": 105563,
      "internal_node_id": "0.0-3.0-7.0",
      "responseType": "finish",
      "participantID": "l51p7mnue2zq4ydtdnj6bq9cf65s4bta",
      "conditionNumber": 3
    },
    {
      "rt": null,
      "stimulus": "<blockquote>\n  <p>The next anagram will be shown to you in <strong>12 seconds</strong>. <br><br> The page will automatically advance to the next screen after 12 seconds.</p>\n</blockquote>",
      "key_press": null,
      "trial_type": "html-keyboard-response",
      "trial_index": 11,
      "time_elapsed": 117574,
      "internal_node_id": "0.0-3.0-8.0",
      "responseType": "finish",
      "participantID": "l51p7mnue2zq4ydtdnj6bq9cf65s4bta",
      "conditionNumber": 3
    },
    {
      "rt": null,
      "stimulus": "<blockquote>\n  <h1 id=\"eurndf\">EURNDF</h1>\n  <p><br></p>\n</blockquote>",
      "key_press": null,
      "trial_type": "html-keyboard-response",
      "trial_index": 12,
      "time_elapsed": 127590,
      "internal_node_id": "0.0-3.0-9.0",
      "responseType": "finish",
      "participantID": "l51p7mnue2zq4ydtdnj6bq9cf65s4bta",
      "conditionNumber": 3
    },
    {
      "rt": 4556,
      "responses": "{\"Q0\":0}",
      "trial_type": "survey-likert",
      "trial_index": 13,
      "time_elapsed": 132147,
      "internal_node_id": "0.0-3.0-10.0",
      "responseType": "finish",
      "participantID": "l51p7mnue2zq4ydtdnj6bq9cf65s4bta",
      "conditionNumber": 3
    },
    {
      "rt": 1985,
      "responses": "{\"Q0\":0}",
      "trial_type": "survey-likert",
      "trial_index": 14,
      "time_elapsed": 134134,
      "internal_node_id": "0.0-3.0-11.0",
      "responseType": "finish",
      "participantID": "l51p7mnue2zq4ydtdnj6bq9cf65s4bta",
      "conditionNumber": 3
    },
    {
      "rt": null,
      "stimulus": "<blockquote>\n  <p>The next anagram will be shown to you in <strong>12 seconds</strong>. <br><br> The page will automatically advance to the next screen after 12 seconds.</p>\n</blockquote>",
      "key_press": null,
      "trial_type": "html-keyboard-response",
      "trial_index": 15,
      "time_elapsed": 146143,
      "internal_node_id": "0.0-3.0-12.0",
      "responseType": "finish",
      "participantID": "l51p7mnue2zq4ydtdnj6bq9cf65s4bta",
      "conditionNumber": 3
    },
    {
      "rt": null,
      "stimulus": "<blockquote>\n  <h1 id=\"iocnrag\">IOCNRAG</h1>\n  <p><br></p>\n</blockquote>",
      "key_press": null,
      "trial_type": "html-keyboard-response",
      "trial_index": 16,
      "time_elapsed": 156148,
      "internal_node_id": "0.0-3.0-13.0",
      "responseType": "finish",
      "participantID": "l51p7mnue2zq4ydtdnj6bq9cf65s4bta",
      "conditionNumber": 3
    },
    {
      "rt": 2312,
      "responses": "{\"Q0\":0}",
      "trial_type": "survey-likert",
      "trial_index": 17,
      "time_elapsed": 158461,
      "internal_node_id": "0.0-3.0-14.0",
      "responseType": "finish",
      "participantID": "l51p7mnue2zq4ydtdnj6bq9cf65s4bta",
      "conditionNumber": 3
    },
    {
      "rt": 2149,
      "responses": "{\"Q0\":0}",
      "trial_type": "survey-likert",
      "trial_index": 18,
      "time_elapsed": 160613,
      "internal_node_id": "0.0-3.0-15.0",
      "responseType": "finish",
      "participantID": "l51p7mnue2zq4ydtdnj6bq9cf65s4bta",
      "conditionNumber": 3
    },
    {
      "rt": null,
      "stimulus": "<blockquote>\n  <p>The next anagram will be shown to you in <strong>12 seconds</strong>. <br><br> The page will automatically advance to the next screen after 12 seconds.</p>\n</blockquote>",
      "key_press": null,
      "trial_type": "html-keyboard-response",
      "trial_index": 19,
      "time_elapsed": 162624,
      "internal_node_id": "0.0-3.0-16.0",
      "responseType": "finish",
      "participantID": "l51p7mnue2zq4ydtdnj6bq9cf65s4bta",
      "conditionNumber": 3
    },
    {
      "rt": null,
      "stimulus": "<blockquote>\n  <h1 id=\"knig\">KNIG</h1>\n  <p><br></p>\n</blockquote>",
      "key_press": null,
      "trial_type": "html-keyboard-response",
      "trial_index": 20,
      "time_elapsed": 172625,
      "internal_node_id": "0.0-3.0-17.0",
      "responseType": "finish",
      "participantID": "l51p7mnue2zq4ydtdnj6bq9cf65s4bta",
      "conditionNumber": 3
    },
    {
      "rt": 2369,
      "responses": "{\"Q0\":1}",
      "trial_type": "survey-likert",
      "trial_index": 21,
      "time_elapsed": 174997,
      "internal_node_id": "0.0-4.0-0.0",
      "responseType": "finish",
      "participantID": "l51p7mnue2zq4ydtdnj6bq9cf65s4bta",
      "conditionNumber": 3
    },
    {
      "rt": 4289,
      "responses": "{\"Q0\":3}",
      "trial_type": "survey-likert",
      "trial_index": 22,
      "time_elapsed": 179287,
      "internal_node_id": "0.0-4.0-0.1",
      "responseType": "finish",
      "participantID": "l51p7mnue2zq4ydtdnj6bq9cf65s4bta",
      "conditionNumber": 3
    }
  ],
  "__v": 0
},{
  "_id": {
    "$oid": "61e0bb9dc104be000454d6fa"
  },
  "data": [
    {
      "rt": 5874,
      "responses": "{\"Q0\":\" I consent to participate\"}",
      "trial_type": "survey-multi-choice",
      "trial_index": 0,
      "time_elapsed": 5883,
      "internal_node_id": "0.0-0.0",
      "responseType": "finish",
      "participantID": "nex8fjl3tldh1zpzahg10l7lmmk8jef6",
      "conditionNumber": 3
    },
    {
      "trial_type": "call-function",
      "trial_index": 1,
      "time_elapsed": 5887,
      "internal_node_id": "0.0-1.0",
      "responseType": "finish",
      "participantID": "nex8fjl3tldh1zpzahg10l7lmmk8jef6",
      "conditionNumber": 3
    },
    {
      "view_history": "[{\"page_index\":0,\"viewing_time\":5846},{\"page_index\":1,\"viewing_time\":8719},{\"page_index\":2,\"viewing_time\":6010}]",
      "rt": 20576,
      "trial_type": "instructions",
      "trial_index": 2,
      "time_elapsed": 26463,
      "internal_node_id": "0.0-2.0",
      "responseType": "finish",
      "participantID": "nex8fjl3tldh1zpzahg10l7lmmk8jef6",
      "conditionNumber": 3
    },
    {
      "rt": null,
      "stimulus": "<blockquote>\n  <p>The next anagram will be shown to you in <strong>12 seconds</strong>. <br><br> The page will automatically advance to the next screen after 12 seconds.</p>\n</blockquote>",
      "key_press": null,
      "trial_type": "html-keyboard-response",
      "trial_index": 3,
      "time_elapsed": 38468,
      "internal_node_id": "0.0-3.0-0.0",
      "responseType": "finish",
      "participantID": "nex8fjl3tldh1zpzahg10l7lmmk8jef6",
      "conditionNumber": 3
    },
    {
      "rt": null,
      "stimulus": "<blockquote>\n  <h1 id=\"eurndf\">EURNDF</h1>\n  <p><br></p>\n</blockquote>",
      "key_press": null,
      "trial_type": "html-keyboard-response",
      "trial_index": 4,
      "time_elapsed": 48469,
      "internal_node_id": "0.0-3.0-1.0",
      "responseType": "finish",
      "participantID": "nex8fjl3tldh1zpzahg10l7lmmk8jef6",
      "conditionNumber": 3
    },
    {
      "rt": 2663,
      "responses": "{\"Q0\":0}",
      "trial_type": "survey-likert",
      "trial_index": 5,
      "time_elapsed": 51133,
      "internal_node_id": "0.0-3.0-2.0",
      "responseType": "finish",
      "participantID": "nex8fjl3tldh1zpzahg10l7lmmk8jef6",
      "conditionNumber": 3
    },
    {
      "rt": 8261,
      "responses": "{\"Q0\":0}",
      "trial_type": "survey-likert",
      "trial_index": 6,
      "time_elapsed": 59397,
      "internal_node_id": "0.0-3.0-3.0",
      "responseType": "finish",
      "participantID": "nex8fjl3tldh1zpzahg10l7lmmk8jef6",
      "conditionNumber": 3
    },
    {
      "rt": null,
      "stimulus": "<blockquote>\n  <p>The next anagram will be shown to you in <strong>12 seconds</strong>. <br><br> The page will automatically advance to the next screen after 12 seconds.</p>\n</blockquote>",
      "key_press": null,
      "trial_type": "html-keyboard-response",
      "trial_index": 7,
      "time_elapsed": 71399,
      "internal_node_id": "0.0-3.0-4.0",
      "responseType": "finish",
      "participantID": "nex8fjl3tldh1zpzahg10l7lmmk8jef6",
      "conditionNumber": 3
    },
    {
      "rt": null,
      "stimulus": "<blockquote>\n  <h1 id=\"hnatuyg\">HNATUYG</h1>\n  <p><br></p>\n</blockquote>",
      "key_press": null,
      "trial_type": "html-keyboard-response",
      "trial_index": 8,
      "time_elapsed": 81401,
      "internal_node_id": "0.0-3.0-5.0",
      "responseType": "finish",
      "participantID": "nex8fjl3tldh1zpzahg10l7lmmk8jef6",
      "conditionNumber": 3
    },
    {
      "rt": 4402,
      "responses": "{\"Q0\":0}",
      "trial_type": "survey-likert",
      "trial_index": 9,
      "time_elapsed": 85804,
      "internal_node_id": "0.0-3.0-6.0",
      "responseType": "finish",
      "participantID": "nex8fjl3tldh1zpzahg10l7lmmk8jef6",
      "conditionNumber": 3
    },
    {
      "rt": 2285,
      "responses": "{\"Q0\":0}",
      "trial_type": "survey-likert",
      "trial_index": 10,
      "time_elapsed": 88092,
      "internal_node_id": "0.0-3.0-7.0",
      "responseType": "finish",
      "participantID": "nex8fjl3tldh1zpzahg10l7lmmk8jef6",
      "conditionNumber": 3
    },
    {
      "rt": null,
      "stimulus": "<blockquote>\n  <p>The next anagram will be shown to you in <strong>12 seconds</strong>. <br><br> The page will automatically advance to the next screen after 12 seconds.</p>\n</blockquote>",
      "key_press": null,
      "trial_type": "html-keyboard-response",
      "trial_index": 11,
      "time_elapsed": 100095,
      "internal_node_id": "0.0-3.0-8.0",
      "responseType": "finish",
      "participantID": "nex8fjl3tldh1zpzahg10l7lmmk8jef6",
      "conditionNumber": 3
    },
    {
      "rt": null,
      "stimulus": "<blockquote>\n  <h1 id=\"udalrbe\">UDALRBE</h1>\n  <p><br></p>\n</blockquote>",
      "key_press": null,
      "trial_type": "html-keyboard-response",
      "trial_index": 12,
      "time_elapsed": 110097,
      "internal_node_id": "0.0-3.0-9.0",
      "responseType": "finish",
      "participantID": "nex8fjl3tldh1zpzahg10l7lmmk8jef6",
      "conditionNumber": 3
    },
    {
      "rt": 5229,
      "responses": "{\"Q0\":0}",
      "trial_type": "survey-likert",
      "trial_index": 13,
      "time_elapsed": 115328,
      "internal_node_id": "0.0-3.0-10.0",
      "responseType": "finish",
      "participantID": "nex8fjl3tldh1zpzahg10l7lmmk8jef6",
      "conditionNumber": 3
    },
    {
      "rt": 1889,
      "responses": "{\"Q0\":0}",
      "trial_type": "survey-likert",
      "trial_index": 14,
      "time_elapsed": 117218,
      "internal_node_id": "0.0-3.0-11.0",
      "responseType": "finish",
      "participantID": "nex8fjl3tldh1zpzahg10l7lmmk8jef6",
      "conditionNumber": 3
    },
    {
      "rt": null,
      "stimulus": "<blockquote>\n  <p>The next anagram will be shown to you in <strong>12 seconds</strong>. <br><br> The page will automatically advance to the next screen after 12 seconds.</p>\n</blockquote>",
      "key_press": null,
      "trial_type": "html-keyboard-response",
      "trial_index": 15,
      "time_elapsed": 129221,
      "internal_node_id": "0.0-3.0-12.0",
      "responseType": "finish",
      "participantID": "nex8fjl3tldh1zpzahg10l7lmmk8jef6",
      "conditionNumber": 3
    },
    {
      "rt": null,
      "stimulus": "<blockquote>\n  <h1 id=\"aneplix\">ANEPLIX</h1>\n  <p><br></p>\n</blockquote>",
      "key_press": null,
      "trial_type": "html-keyboard-response",
      "trial_index": 16,
      "time_elapsed": 139224,
      "internal_node_id": "0.0-3.0-13.0",
      "responseType": "finish",
      "participantID": "nex8fjl3tldh1zpzahg10l7lmmk8jef6",
      "conditionNumber": 3
    },
    {
      "rt": 2474,
      "responses": "{\"Q0\":0}",
      "trial_type": "survey-likert",
      "trial_index": 17,
      "time_elapsed": 141699,
      "internal_node_id": "0.0-3.0-14.0",
      "responseType": "finish",
      "participantID": "nex8fjl3tldh1zpzahg10l7lmmk8jef6",
      "conditionNumber": 3
    },
    {
      "rt": 1980,
      "responses": "{\"Q0\":0}",
      "trial_type": "survey-likert",
      "trial_index": 18,
      "time_elapsed": 143680,
      "internal_node_id": "0.0-3.0-15.0",
      "responseType": "finish",
      "participantID": "nex8fjl3tldh1zpzahg10l7lmmk8jef6",
      "conditionNumber": 3
    },
    {
      "rt": null,
      "stimulus": "<blockquote>\n  <p>The next anagram will be shown to you in <strong>12 seconds</strong>. <br><br> The page will automatically advance to the next screen after 12 seconds.</p>\n</blockquote>",
      "key_press": null,
      "trial_type": "html-keyboard-response",
      "trial_index": 19,
      "time_elapsed": 145682,
      "internal_node_id": "0.0-3.0-16.0",
      "responseType": "finish",
      "participantID": "nex8fjl3tldh1zpzahg10l7lmmk8jef6",
      "conditionNumber": 3
    },
    {
      "rt": null,
      "stimulus": "<blockquote>\n  <h1 id=\"glod\">GLOD</h1>\n  <p><br></p>\n</blockquote>",
      "key_press": null,
      "trial_type": "html-keyboard-response",
      "trial_index": 20,
      "time_elapsed": 155684,
      "internal_node_id": "0.0-3.0-17.0",
      "responseType": "finish",
      "participantID": "nex8fjl3tldh1zpzahg10l7lmmk8jef6",
      "conditionNumber": 3
    },
    {
      "rt": 3044,
      "responses": "{\"Q0\":1}",
      "trial_type": "survey-likert",
      "trial_index": 21,
      "time_elapsed": 158731,
      "internal_node_id": "0.0-4.0-0.0",
      "responseType": "finish",
      "participantID": "nex8fjl3tldh1zpzahg10l7lmmk8jef6",
      "conditionNumber": 3
    },
    {
      "rt": 2472,
      "responses": "{\"Q0\":6}",
      "trial_type": "survey-likert",
      "trial_index": 22,
      "time_elapsed": 161205,
      "internal_node_id": "0.0-4.0-0.1",
      "responseType": "finish",
      "participantID": "nex8fjl3tldh1zpzahg10l7lmmk8jef6",
      "conditionNumber": 3
    }
  ],
  "__v": 0
},{
  "_id": {
    "$oid": "61e0bb9ec104be000454d6fb"
  },
  "data": [
    {
      "rt": 13106,
      "responses": "{\"Q0\":\" I consent to participate\"}",
      "trial_type": "survey-multi-choice",
      "trial_index": 0,
      "time_elapsed": 13164,
      "internal_node_id": "0.0-0.0",
      "responseType": "finish",
      "participantID": "qjyyxujx8mawmpd10by0nspvpazec5va",
      "conditionNumber": 3
    },
    {
      "trial_type": "call-function",
      "trial_index": 1,
      "time_elapsed": 13178,
      "internal_node_id": "0.0-1.0",
      "responseType": "finish",
      "participantID": "qjyyxujx8mawmpd10by0nspvpazec5va",
      "conditionNumber": 3
    },
    {
      "view_history": "[{\"page_index\":0,\"viewing_time\":1747},{\"page_index\":1,\"viewing_time\":8609},{\"page_index\":2,\"viewing_time\":5880}]",
      "rt": 16238,
      "trial_type": "instructions",
      "trial_index": 2,
      "time_elapsed": 29417,
      "internal_node_id": "0.0-2.0",
      "responseType": "finish",
      "participantID": "qjyyxujx8mawmpd10by0nspvpazec5va",
      "conditionNumber": 3
    },
    {
      "rt": null,
      "stimulus": "<blockquote>\n  <p>The next anagram will be shown to you in <strong>12 seconds</strong>. <br><br> The page will automatically advance to the next screen after 12 seconds.</p>\n</blockquote>",
      "key_press": null,
      "trial_type": "html-keyboard-response",
      "trial_index": 3,
      "time_elapsed": 41420,
      "internal_node_id": "0.0-3.0-0.0",
      "responseType": "finish",
      "participantID": "qjyyxujx8mawmpd10by0nspvpazec5va",
      "conditionNumber": 3
    },
    {
      "rt": null,
      "stimulus": "<blockquote>\n  <h1 id=\"aneplix\">ANEPLIX</h1>\n  <p><br></p>\n</blockquote>",
      "key_press": null,
      "trial_type": "html-keyboard-response",
      "trial_index": 4,
      "time_elapsed": 51422,
      "internal_node_id": "0.0-3.0-1.0",
      "responseType": "finish",
      "participantID": "qjyyxujx8mawmpd10by0nspvpazec5va",
      "conditionNumber": 3
    },
    {
      "rt": 4800,
      "responses": "{\"Q0\":0}",
      "trial_type": "survey-likert",
      "trial_index": 5,
      "time_elapsed": 56225,
      "internal_node_id": "0.0-3.0-2.0",
      "responseType": "finish",
      "participantID": "qjyyxujx8mawmpd10by0nspvpazec5va",
      "conditionNumber": 3
    },
    {
      "rt": 20156,
      "responses": "{\"Q0\":1}",
      "trial_type": "survey-likert",
      "trial_index": 6,
      "time_elapsed": 76393,
      "internal_node_id": "0.0-3.0-3.0",
      "responseType": "finish",
      "participantID": "qjyyxujx8mawmpd10by0nspvpazec5va",
      "conditionNumber": 3
    },
    {
      "rt": null,
      "stimulus": "<blockquote>\n  <p>The next anagram will be shown to you in <strong>12 seconds</strong>. <br><br> The page will automatically advance to the next screen after 12 seconds.</p>\n</blockquote>",
      "key_press": null,
      "trial_type": "html-keyboard-response",
      "trial_index": 7,
      "time_elapsed": 88404,
      "internal_node_id": "0.0-3.0-4.0",
      "responseType": "finish",
      "participantID": "qjyyxujx8mawmpd10by0nspvpazec5va",
      "conditionNumber": 3
    },
    {
      "rt": null,
      "stimulus": "<blockquote>\n  <h1 id=\"hnatuyg\">HNATUYG</h1>\n  <p><br></p>\n</blockquote>",
      "key_press": null,
      "trial_type": "html-keyboard-response",
      "trial_index": 8,
      "time_elapsed": 98407,
      "internal_node_id": "0.0-3.0-5.0",
      "responseType": "finish",
      "participantID": "qjyyxujx8mawmpd10by0nspvpazec5va",
      "conditionNumber": 3
    },
    {
      "rt": 2903,
      "responses": "{\"Q0\":0}",
      "trial_type": "survey-likert",
      "trial_index": 9,
      "time_elapsed": 101310,
      "internal_node_id": "0.0-3.0-6.0",
      "responseType": "finish",
      "participantID": "qjyyxujx8mawmpd10by0nspvpazec5va",
      "conditionNumber": 3
    },
    {
      "rt": 27484,
      "responses": "{\"Q0\":1}",
      "trial_type": "survey-likert",
      "trial_index": 10,
      "time_elapsed": 128805,
      "internal_node_id": "0.0-3.0-7.0",
      "responseType": "finish",
      "participantID": "qjyyxujx8mawmpd10by0nspvpazec5va",
      "conditionNumber": 3
    },
    {
      "rt": null,
      "stimulus": "<blockquote>\n  <p>The next anagram will be shown to you in <strong>12 seconds</strong>. <br><br> The page will automatically advance to the next screen after 12 seconds.</p>\n</blockquote>",
      "key_press": null,
      "trial_type": "html-keyboard-response",
      "trial_index": 11,
      "time_elapsed": 140817,
      "internal_node_id": "0.0-3.0-8.0",
      "responseType": "finish",
      "participantID": "qjyyxujx8mawmpd10by0nspvpazec5va",
      "conditionNumber": 3
    },
    {
      "rt": null,
      "stimulus": "<blockquote>\n  <h1 id=\"udalrbe\">UDALRBE</h1>\n  <p><br></p>\n</blockquote>",
      "key_press": null,
      "trial_type": "html-keyboard-response",
      "trial_index": 12,
      "time_elapsed": 150819,
      "internal_node_id": "0.0-3.0-9.0",
      "responseType": "finish",
      "participantID": "qjyyxujx8mawmpd10by0nspvpazec5va",
      "conditionNumber": 3
    },
    {
      "rt": 2944,
      "responses": "{\"Q0\":0}",
      "trial_type": "survey-likert",
      "trial_index": 13,
      "time_elapsed": 153765,
      "internal_node_id": "0.0-3.0-10.0",
      "responseType": "finish",
      "participantID": "qjyyxujx8mawmpd10by0nspvpazec5va",
      "conditionNumber": 3
    },
    {
      "rt": 10357,
      "responses": "{\"Q0\":1}",
      "trial_type": "survey-likert",
      "trial_index": 14,
      "time_elapsed": 164133,
      "internal_node_id": "0.0-3.0-11.0",
      "responseType": "finish",
      "participantID": "qjyyxujx8mawmpd10by0nspvpazec5va",
      "conditionNumber": 3
    },
    {
      "rt": null,
      "stimulus": "<blockquote>\n  <p>The next anagram will be shown to you in <strong>12 seconds</strong>. <br><br> The page will automatically advance to the next screen after 12 seconds.</p>\n</blockquote>",
      "key_press": null,
      "trial_type": "html-keyboard-response",
      "trial_index": 15,
      "time_elapsed": 176146,
      "internal_node_id": "0.0-3.0-12.0",
      "responseType": "finish",
      "participantID": "qjyyxujx8mawmpd10by0nspvpazec5va",
      "conditionNumber": 3
    },
    {
      "rt": null,
      "stimulus": "<blockquote>\n  <h1 id=\"eurndf\">EURNDF</h1>\n  <p><br></p>\n</blockquote>",
      "key_press": null,
      "trial_type": "html-keyboard-response",
      "trial_index": 16,
      "time_elapsed": 186147,
      "internal_node_id": "0.0-3.0-13.0",
      "responseType": "finish",
      "participantID": "qjyyxujx8mawmpd10by0nspvpazec5va",
      "conditionNumber": 3
    },
    {
      "rt": 2444,
      "responses": "{\"Q0\":0}",
      "trial_type": "survey-likert",
      "trial_index": 17,
      "time_elapsed": 188593,
      "internal_node_id": "0.0-3.0-14.0",
      "responseType": "finish",
      "participantID": "qjyyxujx8mawmpd10by0nspvpazec5va",
      "conditionNumber": 3
    },
    {
      "rt": 4103,
      "responses": "{\"Q0\":1}",
      "trial_type": "survey-likert",
      "trial_index": 18,
      "time_elapsed": 192707,
      "internal_node_id": "0.0-3.0-15.0",
      "responseType": "finish",
      "participantID": "qjyyxujx8mawmpd10by0nspvpazec5va",
      "conditionNumber": 3
    },
    {
      "rt": null,
      "stimulus": "<blockquote>\n  <p>The next anagram will be shown to you in <strong>12 seconds</strong>. <br><br> The page will automatically advance to the next screen after 12 seconds.</p>\n</blockquote>",
      "key_press": null,
      "trial_type": "html-keyboard-response",
      "trial_index": 19,
      "time_elapsed": 194720,
      "internal_node_id": "0.0-3.0-16.0",
      "responseType": "finish",
      "participantID": "qjyyxujx8mawmpd10by0nspvpazec5va",
      "conditionNumber": 3
    },
    {
      "rt": null,
      "stimulus": "<blockquote>\n  <h1 id=\"glod\">GLOD</h1>\n  <p><br></p>\n</blockquote>",
      "key_press": null,
      "trial_type": "html-keyboard-response",
      "trial_index": 20,
      "time_elapsed": 204722,
      "internal_node_id": "0.0-3.0-17.0",
      "responseType": "finish",
      "participantID": "qjyyxujx8mawmpd10by0nspvpazec5va",
      "conditionNumber": 3
    },
    {
      "rt": 2308,
      "responses": "{\"Q0\":1}",
      "trial_type": "survey-likert",
      "trial_index": 21,
      "time_elapsed": 207033,
      "internal_node_id": "0.0-4.0-0.0",
      "responseType": "finish",
      "participantID": "qjyyxujx8mawmpd10by0nspvpazec5va",
      "conditionNumber": 3
    },
    {
      "rt": 8915,
      "responses": "{\"Q0\":6}",
      "trial_type": "survey-likert",
      "trial_index": 22,
      "time_elapsed": 215959,
      "internal_node_id": "0.0-4.0-0.1",
      "responseType": "finish",
      "participantID": "qjyyxujx8mawmpd10by0nspvpazec5va",
      "conditionNumber": 3
    }
  ],
  "__v": 0
},{
  "_id": {
    "$oid": "61e0bba1c104be000454d6fc"
  },
  "data": [
    {
      "rt": 5132,
      "responses": "{\"Q0\":\" I consent to participate\"}",
      "trial_type": "survey-multi-choice",
      "trial_index": 0,
      "time_elapsed": 5139,
      "internal_node_id": "0.0-0.0",
      "responseType": "finish",
      "participantID": "fk3s5h9blez4g1ouh536wdstr2zoyzd4",
      "conditionNumber": 0
    },
    {
      "trial_type": "call-function",
      "trial_index": 1,
      "time_elapsed": 5146,
      "internal_node_id": "0.0-1.0",
      "responseType": "finish",
      "participantID": "fk3s5h9blez4g1ouh536wdstr2zoyzd4",
      "conditionNumber": 0
    },
    {
      "view_history": "[{\"page_index\":0,\"viewing_time\":1881},{\"page_index\":1,\"viewing_time\":9973},{\"page_index\":2,\"viewing_time\":3870}]",
      "rt": 15726,
      "trial_type": "instructions",
      "trial_index": 2,
      "time_elapsed": 20873,
      "internal_node_id": "0.0-2.0",
      "responseType": "finish",
      "participantID": "fk3s5h9blez4g1ouh536wdstr2zoyzd4",
      "conditionNumber": 0
    },
    {
      "rt": null,
      "stimulus": "<blockquote>\n  <p>The next anagram will be shown to you in <strong>12 seconds</strong>. <br><br> The page will automatically advance to the next screen after 12 seconds.</p>\n</blockquote>",
      "key_press": null,
      "trial_type": "html-keyboard-response",
      "trial_index": 3,
      "time_elapsed": 32881,
      "internal_node_id": "0.0-3.0-0.0",
      "responseType": "finish",
      "participantID": "fk3s5h9blez4g1ouh536wdstr2zoyzd4",
      "conditionNumber": 0
    },
    {
      "rt": null,
      "stimulus": "<blockquote>\n  <h1 id=\"fidn\">FIDN</h1>\n  <p><br></p>\n</blockquote>",
      "key_press": null,
      "trial_type": "html-keyboard-response",
      "trial_index": 4,
      "time_elapsed": 42883,
      "internal_node_id": "0.0-3.0-1.0",
      "responseType": "finish",
      "participantID": "fk3s5h9blez4g1ouh536wdstr2zoyzd4",
      "conditionNumber": 0
    },
    {
      "rt": 3441,
      "responses": "{\"Q0\":1}",
      "trial_type": "survey-likert",
      "trial_index": 5,
      "time_elapsed": 46328,
      "internal_node_id": "0.0-3.0-2.0",
      "responseType": "finish",
      "participantID": "fk3s5h9blez4g1ouh536wdstr2zoyzd4",
      "conditionNumber": 0
    },
    {
      "rt": 9971,
      "responses": "{\"Q0\":6}",
      "trial_type": "survey-likert",
      "trial_index": 6,
      "time_elapsed": 56303,
      "internal_node_id": "0.0-3.0-3.0",
      "responseType": "finish",
      "participantID": "fk3s5h9blez4g1ouh536wdstr2zoyzd4",
      "conditionNumber": 0
    },
    {
      "rt": null,
      "stimulus": "<blockquote>\n  <p>The next anagram will be shown to you in <strong>12 seconds</strong>. <br><br> The page will automatically advance to the next screen after 12 seconds.</p>\n</blockquote>",
      "key_press": null,
      "trial_type": "html-keyboard-response",
      "trial_index": 7,
      "time_elapsed": 68309,
      "internal_node_id": "0.0-3.0-4.0",
      "responseType": "finish",
      "participantID": "fk3s5h9blez4g1ouh536wdstr2zoyzd4",
      "conditionNumber": 0
    },
    {
      "rt": null,
      "stimulus": "<blockquote>\n  <h1 id=\"pitn\">PITN</h1>\n  <p><br></p>\n</blockquote>",
      "key_press": null,
      "trial_type": "html-keyboard-response",
      "trial_index": 8,
      "time_elapsed": 78310,
      "internal_node_id": "0.0-3.0-5.0",
      "responseType": "finish",
      "participantID": "fk3s5h9blez4g1ouh536wdstr2zoyzd4",
      "conditionNumber": 0
    },
    {
      "rt": 2230,
      "responses": "{\"Q0\":1}",
      "trial_type": "survey-likert",
      "trial_index": 9,
      "time_elapsed": 80544,
      "internal_node_id": "0.0-3.0-6.0",
      "responseType": "finish",
      "participantID": "fk3s5h9blez4g1ouh536wdstr2zoyzd4",
      "conditionNumber": 0
    },
    {
      "rt": 4108,
      "responses": "{\"Q0\":6}",
      "trial_type": "survey-likert",
      "trial_index": 10,
      "time_elapsed": 84655,
      "internal_node_id": "0.0-3.0-7.0",
      "responseType": "finish",
      "participantID": "fk3s5h9blez4g1ouh536wdstr2zoyzd4",
      "conditionNumber": 0
    },
    {
      "rt": null,
      "stimulus": "<blockquote>\n  <p>The next anagram will be shown to you in <strong>12 seconds</strong>. <br><br> The page will automatically advance to the next screen after 12 seconds.</p>\n</blockquote>",
      "key_press": null,
      "trial_type": "html-keyboard-response",
      "trial_index": 11,
      "time_elapsed": 96659,
      "internal_node_id": "0.0-3.0-8.0",
      "responseType": "finish",
      "participantID": "fk3s5h9blez4g1ouh536wdstr2zoyzd4",
      "conditionNumber": 0
    },
    {
      "rt": null,
      "stimulus": "<blockquote>\n  <h1 id=\"fodo\">FODO</h1>\n  <p><br></p>\n</blockquote>",
      "key_press": null,
      "trial_type": "html-keyboard-response",
      "trial_index": 12,
      "time_elapsed": 106666,
      "internal_node_id": "0.0-3.0-9.0",
      "responseType": "finish",
      "participantID": "fk3s5h9blez4g1ouh536wdstr2zoyzd4",
      "conditionNumber": 0
    },
    {
      "rt": 3118,
      "responses": "{\"Q0\":1}",
      "trial_type": "survey-likert",
      "trial_index": 13,
      "time_elapsed": 109786,
      "internal_node_id": "0.0-3.0-10.0",
      "responseType": "finish",
      "participantID": "fk3s5h9blez4g1ouh536wdstr2zoyzd4",
      "conditionNumber": 0
    },
    {
      "rt": 3213,
      "responses": "{\"Q0\":6}",
      "trial_type": "survey-likert",
      "trial_index": 14,
      "time_elapsed": 113004,
      "internal_node_id": "0.0-3.0-11.0",
      "responseType": "finish",
      "participantID": "fk3s5h9blez4g1ouh536wdstr2zoyzd4",
      "conditionNumber": 0
    },
    {
      "rt": null,
      "stimulus": "<blockquote>\n  <p>The next anagram will be shown to you in <strong>12 seconds</strong>. <br><br> The page will automatically advance to the next screen after 12 seconds.</p>\n</blockquote>",
      "key_press": null,
      "trial_type": "html-keyboard-response",
      "trial_index": 15,
      "time_elapsed": 125009,
      "internal_node_id": "0.0-3.0-12.0",
      "responseType": "finish",
      "participantID": "fk3s5h9blez4g1ouh536wdstr2zoyzd4",
      "conditionNumber": 0
    },
    {
      "rt": null,
      "stimulus": "<blockquote>\n  <h1 id=\"codl\">CODL</h1>\n  <p><br></p>\n</blockquote>",
      "key_press": null,
      "trial_type": "html-keyboard-response",
      "trial_index": 16,
      "time_elapsed": 135016,
      "internal_node_id": "0.0-3.0-13.0",
      "responseType": "finish",
      "participantID": "fk3s5h9blez4g1ouh536wdstr2zoyzd4",
      "conditionNumber": 0
    },
    {
      "rt": 9434,
      "responses": "{\"Q0\":1}",
      "trial_type": "survey-likert",
      "trial_index": 17,
      "time_elapsed": 144454,
      "internal_node_id": "0.0-3.0-14.0",
      "responseType": "finish",
      "participantID": "fk3s5h9blez4g1ouh536wdstr2zoyzd4",
      "conditionNumber": 0
    },
    {
      "rt": 3763,
      "responses": "{\"Q0\":6}",
      "trial_type": "survey-likert",
