[{
  "_id": {
    "$oid": "62b115d87cd3240004e0fb53"
  },
  "data": {
    "responseType": "start",
    "participantID": "h6jaxg8qv6165erq4crh969txyddke0t",
    "black_problems": [
      "AALRYS"
    ],
    "blue_problems": [
      "AYUGNHT"
    ],
    "blue_solution_time": 15
  },
  "__v": 0
},{
  "_id": {
    "$oid": "62b116717cd3240004e0fb54"
  },
  "data": [
    {
      "rt": 12735,
      "responses": "{\"Q0\":\" I consent to participate\"}",
      "trial_type": "survey-multi-choice",
      "trial_index": 0,
      "time_elapsed": 12739,
      "internal_node_id": "0.0-0.0",
      "responseType": "finish",
      "participantID": "h6jaxg8qv6165erq4crh969txyddke0t",
      "black_problems": [
        "AALRYS"
      ],
      "blue_problems": [
        "AYUGNHT"
      ],
      "blue_solution_time": 15
    },
    {
      "trial_type": "call-function",
      "trial_index": 1,
      "time_elapsed": 12743,
      "internal_node_id": "0.0-1.0",
      "responseType": "finish",
      "participantID": "h6jaxg8qv6165erq4crh969txyddke0t",
      "black_problems": [
        "AALRYS"
      ],
      "blue_problems": [
        "AYUGNHT"
      ],
      "blue_solution_time": 15
    },
    {
      "view_history": "[{\"page_index\":0,\"viewing_time\":17148},{\"page_index\":1,\"viewing_time\":21458},{\"page_index\":2,\"viewing_time\":8592}]",
      "rt": 47198,
      "trial_type": "instructions",
      "trial_index": 2,
      "time_elapsed": 59941,
      "internal_node_id": "0.0-2.0-0.0",
      "responseType": "finish",
      "participantID": "h6jaxg8qv6165erq4crh969txyddke0t",
      "black_problems": [
        "AALRYS"
      ],
      "blue_problems": [
        "AYUGNHT"
      ],
      "blue_solution_time": 15
    },
    {
      "rt": 14646,
      "responses": "{\"Q0\":\"The answer to the blue colored anagram will be shown after 2 minutes.\"}",
      "trial_type": "survey-multi-choice",
      "trial_index": 3,
      "time_elapsed": 74590,
      "internal_node_id": "0.0-2.0-1.0",
      "responseType": "finish",
      "participantID": "h6jaxg8qv6165erq4crh969txyddke0t",
      "black_problems": [
        "AALRYS"
      ],
      "blue_problems": [
        "AYUGNHT"
      ],
      "blue_solution_time": 15
    },
    {
      "rt": 7375,
      "stimulus": "<center><p>Now the <b style=\"color:#069\">blue</b> anagram will be shown to you.</p> <p>If you are not able to solve the anagram in <b>2 minutes</b>, the answer will be shown to you.</p> <p>Press 'v' to view the anagram. </p></center>",
      "key_press": 86,
      "trial_type": "html-keyboard-response",
      "trial_index": 4,
      "time_elapsed": 81966,
      "internal_node_id": "0.0-3.0-0.0",
      "responseType": "finish",
      "participantID": "h6jaxg8qv6165erq4crh969txyddke0t",
      "black_problems": [
        "AALRYS"
      ],
      "blue_problems": [
        "AYUGNHT"
      ],
      "blue_solution_time": 15
    },
    {
      "rt": 15001,
      "responses": "{\"Q0\":\"naughty\"}",
      "trial_type": "survey-text",
      "trial_index": 5,
      "time_elapsed": 96969,
      "internal_node_id": "0.0-3.0-1.0",
      "responseType": "finish",
      "participantID": "h6jaxg8qv6165erq4crh969txyddke0t",
      "black_problems": [
        "AALRYS"
      ],
      "blue_problems": [
        "AYUGNHT"
      ],
      "blue_solution_time": 15
    },
    {
      "rt": 2666,
      "stimulus": "<center>The answer is: <h2 style=\"color:#069\"><p>NAUGHTY</p></h2><br/><br/></center>",
      "button_pressed": "0",
      "trial_type": "html-button-response",
      "trial_index": 6,
      "time_elapsed": 99636,
      "internal_node_id": "0.0-3.0-2.0-0.0",
      "responseType": "finish",
      "participantID": "h6jaxg8qv6165erq4crh969txyddke0t",
      "black_problems": [
        "AALRYS"
      ],
      "blue_problems": [
        "AYUGNHT"
      ],
      "blue_solution_time": 15
    },
    {
      "rt": 23250,
      "responses": "{\"Q0\":0}",
      "trial_type": "survey-likert",
      "trial_index": 7,
      "time_elapsed": 122888,
      "internal_node_id": "0.0-3.0-3.0-0.0",
      "responseType": "finish",
      "participantID": "h6jaxg8qv6165erq4crh969txyddke0t",
      "black_problems": [
        "AALRYS"
      ],
      "blue_problems": [
        "AYUGNHT"
      ],
      "blue_solution_time": 15
    },
    {
      "rt": 3066,
      "stimulus": "<center><p>Now the <b>black</b> anagram will be shown to you.</p> <p>If you are not able to solve the anagram in <b>2 minutes</b>, you will be taken to the next screen.</p> <p>Press 'v' to view the anagram. </p></center>",
      "key_press": 86,
      "trial_type": "html-keyboard-response",
      "trial_index": 8,
      "time_elapsed": 125959,
      "internal_node_id": "0.0-3.1-0.1",
      "responseType": "finish",
      "participantID": "h6jaxg8qv6165erq4crh969txyddke0t",
      "black_problems": [
        "AALRYS"
      ],
      "blue_problems": [
        "AYUGNHT"
      ],
      "blue_solution_time": 15
    },
    {
      "rt": 36288,
      "responses": "{\"Q0\":\"salary\"}",
      "trial_type": "survey-text",
      "trial_index": 9,
      "time_elapsed": 162247,
      "internal_node_id": "0.0-3.1-1.1",
      "responseType": "finish",
      "participantID": "h6jaxg8qv6165erq4crh969txyddke0t",
      "black_problems": [
        "AALRYS"
      ],
      "blue_problems": [
        "AYUGNHT"
      ],
      "blue_solution_time": 15
    },
    {
      "rt": 4114,
      "responses": "{\"Q0\":4}",
      "trial_type": "survey-likert",
      "trial_index": 10,
      "time_elapsed": 166362,
      "internal_node_id": "0.0-3.1-3.1-0.1",
      "responseType": "finish",
      "participantID": "h6jaxg8qv6165erq4crh969txyddke0t",
      "black_problems": [
        "AALRYS"
      ],
      "blue_problems": [
        "AYUGNHT"
      ],
      "blue_solution_time": 15
    }
  ],
  "__v": 0
},{
  "_id": {
    "$oid": "62b1167b7cd3240004e0fb55"
  },
  "data": {
    "responseType": "start",
    "participantID": "v7903npg70sr526cd8bdjj6v8pe8n5zd",
    "black_problems": [
      "AYKAWLJ"
    ],
    "blue_problems": [
      "AXPLINE"
    ],
    "blue_solution_time": 20
  },
  "__v": 0
},{
  "_id": {
    "$oid": "62b116ab7cd3240004e0fb56"
  },
  "data": {
    "responseType": "start",
    "participantID": "55xhr6exux2zweqq8zw4z6l9ybxgrsy7",
    "black_problems": [
      "LUBMEJD"
    ],
    "blue_problems": [
      "AYKAWLJ"
    ],
    "blue_solution_time": 15
  },
  "__v": 0
},{
  "_id": {
    "$oid": "62b116ba7cd3240004e0fb57"
  },
  "data": {
    "responseType": "start",
    "participantID": "tmhuelnc9xrg9av98k6qd0zgwc3mz32k",
    "black_problems": [
      "AXPLINE"
    ],
    "blue_problems": [
      "LUBMEJD"
    ],
    "blue_solution_time": 17
  },
  "__v": 0
},{
  "_id": {
    "$oid": "62b117027cd3240004e0fb58"
  },
  "data": [
    {
      "rt": 4877,
      "responses": "{\"Q0\":\" I consent to participate\"}",
      "trial_type": "survey-multi-choice",
      "trial_index": 0,
      "time_elapsed": 4882,
      "internal_node_id": "0.0-0.0",
      "responseType": "finish",
      "participantID": "55xhr6exux2zweqq8zw4z6l9ybxgrsy7",
      "black_problems": [
        "LUBMEJD"
      ],
      "blue_problems": [
        "AYKAWLJ"
      ],
      "blue_solution_time": 15
    },
    {
      "trial_type": "call-function",
      "trial_index": 1,
      "time_elapsed": 4885,
      "internal_node_id": "0.0-1.0",
      "responseType": "finish",
      "participantID": "55xhr6exux2zweqq8zw4z6l9ybxgrsy7",
      "black_problems": [
        "LUBMEJD"
      ],
      "blue_problems": [
        "AYKAWLJ"
      ],
      "blue_solution_time": 15
    },
    {
      "view_history": "[{\"page_index\":0,\"viewing_time\":6061},{\"page_index\":1,\"viewing_time\":12530},{\"page_index\":2,\"viewing_time\":6274}]",
      "rt": 24866,
      "trial_type": "instructions",
      "trial_index": 2,
      "time_elapsed": 29751,
      "internal_node_id": "0.0-2.0-0.0",
      "responseType": "finish",
      "participantID": "55xhr6exux2zweqq8zw4z6l9ybxgrsy7",
      "black_problems": [
        "LUBMEJD"
      ],
      "blue_problems": [
        "AYKAWLJ"
      ],
      "blue_solution_time": 15
    },
    {
      "rt": 11342,
      "responses": "{\"Q0\":\"The answer to the blue colored anagram will be shown after 2 minutes.\"}",
      "trial_type": "survey-multi-choice",
      "trial_index": 3,
      "time_elapsed": 41096,
      "internal_node_id": "0.0-2.0-1.0",
      "responseType": "finish",
      "participantID": "55xhr6exux2zweqq8zw4z6l9ybxgrsy7",
      "black_problems": [
        "LUBMEJD"
      ],
      "blue_problems": [
        "AYKAWLJ"
      ],
      "blue_solution_time": 15
    },
    {
      "rt": 4545,
      "stimulus": "<center><p>Now the <b>black</b> anagram will be shown to you.</p> <p>If you are not able to solve the anagram in <b>2 minutes</b>, you will be taken to the next screen.</p> <p>Press 'v' to view the anagram. </p></center>",
      "key_press": 86,
      "trial_type": "html-keyboard-response",
      "trial_index": 4,
      "time_elapsed": 45643,
      "internal_node_id": "0.0-3.0-0.0",
      "responseType": "finish",
      "participantID": "55xhr6exux2zweqq8zw4z6l9ybxgrsy7",
      "black_problems": [
        "LUBMEJD"
      ],
      "blue_problems": [
        "AYKAWLJ"
      ],
      "blue_solution_time": 15
    },
    {
      "rt": 8735,
      "responses": "{\"Q0\":\"Jumbled\"}",
      "trial_type": "survey-text",
      "trial_index": 5,
      "time_elapsed": 54379,
      "internal_node_id": "0.0-3.0-1.0",
      "responseType": "finish",
      "participantID": "55xhr6exux2zweqq8zw4z6l9ybxgrsy7",
      "black_problems": [
        "LUBMEJD"
      ],
      "blue_problems": [
        "AYKAWLJ"
      ],
      "blue_solution_time": 15
    },
    {
      "rt": 10586,
      "responses": "{\"Q0\":6}",
      "trial_type": "survey-likert",
      "trial_index": 6,
      "time_elapsed": 64966,
      "internal_node_id": "0.0-3.0-3.0-0.0",
      "responseType": "finish",
      "participantID": "55xhr6exux2zweqq8zw4z6l9ybxgrsy7",
      "black_problems": [
        "LUBMEJD"
      ],
      "blue_problems": [
        "AYKAWLJ"
      ],
      "blue_solution_time": 15
    },
    {
      "rt": 3889,
      "stimulus": "<center><p>Now the <b style=\"color:#069\">blue</b> anagram will be shown to you.</p> <p>If you are not able to solve the anagram in <b>2 minutes</b>, the answer will be shown to you.</p> <p>Press 'v' to view the anagram. </p></center>",
      "key_press": 86,
      "trial_type": "html-keyboard-response",
      "trial_index": 7,
      "time_elapsed": 68865,
      "internal_node_id": "0.0-3.1-0.1",
      "responseType": "finish",
      "participantID": "55xhr6exux2zweqq8zw4z6l9ybxgrsy7",
      "black_problems": [
        "LUBMEJD"
      ],
      "blue_problems": [
        "AYKAWLJ"
      ],
      "blue_solution_time": 15
    },
    {
      "rt": 15001,
      "responses": "{\"Q0\":\"\"}",
      "trial_type": "survey-text",
      "trial_index": 8,
      "time_elapsed": 83866,
      "internal_node_id": "0.0-3.1-1.1",
      "responseType": "finish",
      "participantID": "55xhr6exux2zweqq8zw4z6l9ybxgrsy7",
      "black_problems": [
        "LUBMEJD"
      ],
      "blue_problems": [
        "AYKAWLJ"
      ],
      "blue_solution_time": 15
    },
    {
      "rt": 4765,
      "stimulus": "<center>The answer is: <h2 style=\"color:#069\"><p>JAYWALK</p></h2><br/><br/></center>",
      "button_pressed": "0",
      "trial_type": "html-button-response",
      "trial_index": 9,
      "time_elapsed": 88632,
      "internal_node_id": "0.0-3.1-2.1-0.1",
      "responseType": "finish",
      "participantID": "55xhr6exux2zweqq8zw4z6l9ybxgrsy7",
      "black_problems": [
        "LUBMEJD"
      ],
      "blue_problems": [
        "AYKAWLJ"
      ],
      "blue_solution_time": 15
    },
    {
      "rt": 3184,
      "responses": "{\"Q0\":0}",
      "trial_type": "survey-likert",
      "trial_index": 10,
      "time_elapsed": 91817,
      "internal_node_id": "0.0-3.1-3.1-0.1",
      "responseType": "finish",
      "participantID": "55xhr6exux2zweqq8zw4z6l9ybxgrsy7",
      "black_problems": [
        "LUBMEJD"
      ],
      "blue_problems": [
        "AYKAWLJ"
      ],
      "blue_solution_time": 15
    }
  ],
  "__v": 0
},{
  "_id": {
    "$oid": "62b117187cd3240004e0fb59"
  },
  "data": [
    {
      "rt": 3317,
      "responses": "{\"Q0\":\" I consent to participate\"}",
      "trial_type": "survey-multi-choice",
      "trial_index": 0,
      "time_elapsed": 3340,
      "internal_node_id": "0.0-0.0",
      "responseType": "finish",
      "participantID": "v7903npg70sr526cd8bdjj6v8pe8n5zd",
      "black_problems": [
        "AYKAWLJ"
      ],
      "blue_problems": [
        "AXPLINE"
      ],
      "blue_solution_time": 20
    },
    {
      "trial_type": "call-function",
      "trial_index": 1,
      "time_elapsed": 3350,
      "internal_node_id": "0.0-1.0",
      "responseType": "finish",
      "participantID": "v7903npg70sr526cd8bdjj6v8pe8n5zd",
      "black_problems": [
        "AYKAWLJ"
      ],
      "blue_problems": [
        "AXPLINE"
      ],
      "blue_solution_time": 20
    },
    {
      "view_history": "[{\"page_index\":0,\"viewing_time\":6524},{\"page_index\":1,\"viewing_time\":10840},{\"page_index\":2,\"viewing_time\":7104}]",
      "rt": 24469,
      "trial_type": "instructions",
      "trial_index": 2,
      "time_elapsed": 27820,
      "internal_node_id": "0.0-2.0-0.0",
      "responseType": "finish",
      "participantID": "v7903npg70sr526cd8bdjj6v8pe8n5zd",
      "black_problems": [
        "AYKAWLJ"
      ],
      "blue_problems": [
        "AXPLINE"
      ],
      "blue_solution_time": 20
    },
    {
      "rt": 5326,
      "responses": "{\"Q0\":\"The answer to the blue colored anagram will be shown after 2 minutes.\"}",
      "trial_type": "survey-multi-choice",
      "trial_index": 3,
      "time_elapsed": 33147,
      "internal_node_id": "0.0-2.0-1.0",
      "responseType": "finish",
      "participantID": "v7903npg70sr526cd8bdjj6v8pe8n5zd",
      "black_problems": [
        "AYKAWLJ"
      ],
      "blue_problems": [
        "AXPLINE"
      ],
      "blue_solution_time": 20
    },
    {
      "rt": 6853,
      "stimulus": "<center><p>Now the <b style=\"color:#069\">blue</b> anagram will be shown to you.</p> <p>If you are not able to solve the anagram in <b>2 minutes</b>, the answer will be shown to you.</p> <p>Press 'v' to view the anagram. </p></center>",
      "key_press": 86,
      "trial_type": "html-keyboard-response",
      "trial_index": 4,
      "time_elapsed": 40005,
      "internal_node_id": "0.0-3.0-0.0",
      "responseType": "finish",
      "participantID": "v7903npg70sr526cd8bdjj6v8pe8n5zd",
      "black_problems": [
        "AYKAWLJ"
      ],
      "blue_problems": [
        "AXPLINE"
      ],
      "blue_solution_time": 20
    },
    {
      "rt": 20011,
      "responses": "{\"Q0\":\"\"}",
      "trial_type": "survey-text",
      "trial_index": 5,
      "time_elapsed": 60017,
      "internal_node_id": "0.0-3.0-1.0",
      "responseType": "finish",
      "participantID": "v7903npg70sr526cd8bdjj6v8pe8n5zd",
      "black_problems": [
        "AYKAWLJ"
      ],
      "blue_problems": [
        "AXPLINE"
      ],
      "blue_solution_time": 20
    },
    {
      "rt": 1936,
      "stimulus": "<center>The answer is: <h2 style=\"color:#069\"><p>EXPLAIN</p></h2><br/><br/></center>",
      "button_pressed": "0",
      "trial_type": "html-button-response",
      "trial_index": 6,
      "time_elapsed": 61956,
      "internal_node_id": "0.0-3.0-2.0-0.0",
      "responseType": "finish",
      "participantID": "v7903npg70sr526cd8bdjj6v8pe8n5zd",
      "black_problems": [
        "AYKAWLJ"
      ],
      "blue_problems": [
        "AXPLINE"
      ],
      "blue_solution_time": 20
    },
    {
      "rt": 10374,
      "responses": "{\"Q0\":6}",
      "trial_type": "survey-likert",
      "trial_index": 7,
      "time_elapsed": 72331,
      "internal_node_id": "0.0-3.0-3.0-0.0",
      "responseType": "finish",
      "participantID": "v7903npg70sr526cd8bdjj6v8pe8n5zd",
      "black_problems": [
        "AYKAWLJ"
      ],
      "blue_problems": [
        "AXPLINE"
      ],
      "blue_solution_time": 20
    },
    {
      "rt": 1937,
      "stimulus": "<center><p>Now the <b>black</b> anagram will be shown to you.</p> <p>If you are not able to solve the anagram in <b>2 minutes</b>, you will be taken to the next screen.</p> <p>Press 'v' to view the anagram. </p></center>",
      "key_press": 86,
      "trial_type": "html-keyboard-response",
      "trial_index": 8,
      "time_elapsed": 74286,
      "internal_node_id": "0.0-3.1-0.1",
      "responseType": "finish",
      "participantID": "v7903npg70sr526cd8bdjj6v8pe8n5zd",
      "black_problems": [
        "AYKAWLJ"
      ],
      "blue_problems": [
        "AXPLINE"
      ],
      "blue_solution_time": 20
    },
    {
      "rt": 83499,
      "responses": "{\"Q0\":\"jaywalk\"}",
      "trial_type": "survey-text",
      "trial_index": 9,
      "time_elapsed": 157786,
      "internal_node_id": "0.0-3.1-1.1",
      "responseType": "finish",
      "participantID": "v7903npg70sr526cd8bdjj6v8pe8n5zd",
      "black_problems": [
        "AYKAWLJ"
      ],
      "blue_problems": [
        "AXPLINE"
      ],
      "blue_solution_time": 20
    },
    {
      "rt": 2847,
      "responses": "{\"Q0\":3}",
      "trial_type": "survey-likert",
      "trial_index": 10,
      "time_elapsed": 160634,
      "internal_node_id": "0.0-3.1-3.1-0.1",
      "responseType": "finish",
      "participantID": "v7903npg70sr526cd8bdjj6v8pe8n5zd",
      "black_problems": [
        "AYKAWLJ"
      ],
      "blue_problems": [
        "AXPLINE"
      ],
      "blue_solution_time": 20
    }
  ],
  "__v": 0
},{
  "_id": {
    "$oid": "62b117287cd3240004e0fb5a"
  },
  "data": [
    {
      "rt": 20609,
      "responses": "{\"Q0\":\" I consent to participate\"}",
      "trial_type": "survey-multi-choice",
      "trial_index": 0,
      "time_elapsed": 20613,
      "internal_node_id": "0.0-0.0",
      "responseType": "finish",
      "participantID": "tmhuelnc9xrg9av98k6qd0zgwc3mz32k",
      "black_problems": [
        "AXPLINE"
      ],
      "blue_problems": [
        "LUBMEJD"
      ],
      "blue_solution_time": 17
    },
    {
      "trial_type": "call-function",
      "trial_index": 1,
      "time_elapsed": 20619,
      "internal_node_id": "0.0-1.0",
      "responseType": "finish",
      "participantID": "tmhuelnc9xrg9av98k6qd0zgwc3mz32k",
      "black_problems": [
        "AXPLINE"
      ],
      "blue_problems": [
        "LUBMEJD"
      ],
      "blue_solution_time": 17
    },
    {
      "view_history": "[{\"page_index\":0,\"viewing_time\":13036},{\"page_index\":1,\"viewing_time\":12960},{\"page_index\":2,\"viewing_time\":6239}]",
      "rt": 32235,
      "trial_type": "instructions",
      "trial_index": 2,
      "time_elapsed": 52854,
      "internal_node_id": "0.0-2.0-0.0",
      "responseType": "finish",
      "participantID": "tmhuelnc9xrg9av98k6qd0zgwc3mz32k",
      "black_problems": [
        "AXPLINE"
      ],
      "blue_problems": [
        "LUBMEJD"
      ],
      "blue_solution_time": 17
    },
    {
      "rt": 14489,
      "responses": "{\"Q0\":\"The answer to the blue colored anagram will be shown after 2 minutes.\"}",
      "trial_type": "survey-multi-choice",
      "trial_index": 3,
      "time_elapsed": 67349,
      "internal_node_id": "0.0-2.0-1.0",
      "responseType": "finish",
      "participantID": "tmhuelnc9xrg9av98k6qd0zgwc3mz32k",
      "black_problems": [
        "AXPLINE"
      ],
      "blue_problems": [
        "LUBMEJD"
      ],
      "blue_solution_time": 17
    },
    {
      "rt": 4766,
      "stimulus": "<center><p>Now the <b>black</b> anagram will be shown to you.</p> <p>If you are not able to solve the anagram in <b>2 minutes</b>, you will be taken to the next screen.</p> <p>Press 'v' to view the anagram. </p></center>",
      "key_press": 86,
      "trial_type": "html-keyboard-response",
      "trial_index": 4,
      "time_elapsed": 72119,
      "internal_node_id": "0.0-3.0-0.0",
      "responseType": "finish",
      "participantID": "tmhuelnc9xrg9av98k6qd0zgwc3mz32k",
      "black_problems": [
        "AXPLINE"
      ],
      "blue_problems": [
        "LUBMEJD"
      ],
      "blue_solution_time": 17
    },
    {
      "rt": 19583,
      "responses": "{\"Q0\":\"explain\"}",
      "trial_type": "survey-text",
      "trial_index": 5,
      "time_elapsed": 91703,
      "internal_node_id": "0.0-3.0-1.0",
      "responseType": "finish",
      "participantID": "tmhuelnc9xrg9av98k6qd0zgwc3mz32k",
      "black_problems": [
        "AXPLINE"
      ],
      "blue_problems": [
        "LUBMEJD"
      ],
      "blue_solution_time": 17
    },
    {
      "rt": 10710,
      "responses": "{\"Q0\":6}",
      "trial_type": "survey-likert",
      "trial_index": 6,
      "time_elapsed": 102415,
      "internal_node_id": "0.0-3.0-3.0-0.0",
      "responseType": "finish",
      "participantID": "tmhuelnc9xrg9av98k6qd0zgwc3mz32k",
      "black_problems": [
        "AXPLINE"
      ],
      "blue_problems": [
        "LUBMEJD"
      ],
      "blue_solution_time": 17
    },
    {
      "rt": 4875,
      "stimulus": "<center><p>Now the <b style=\"color:#069\">blue</b> anagram will be shown to you.</p> <p>If you are not able to solve the anagram in <b>2 minutes</b>, the answer will be shown to you.</p> <p>Press 'v' to view the anagram. </p></center>",
      "key_press": 86,
      "trial_type": "html-keyboard-response",
      "trial_index": 7,
      "time_elapsed": 107299,
      "internal_node_id": "0.0-3.1-0.1",
      "responseType": "finish",
      "participantID": "tmhuelnc9xrg9av98k6qd0zgwc3mz32k",
      "black_problems": [
        "AXPLINE"
      ],
      "blue_problems": [
        "LUBMEJD"
      ],
      "blue_solution_time": 17
    },
    {
      "rt": 10386,
      "responses": "{\"Q0\":\"jumbled\"}",
      "trial_type": "survey-text",
      "trial_index": 8,
      "time_elapsed": 117687,
      "internal_node_id": "0.0-3.1-1.1",
      "responseType": "finish",
      "participantID": "tmhuelnc9xrg9av98k6qd0zgwc3mz32k",
      "black_problems": [
        "AXPLINE"
      ],
      "blue_problems": [
        "LUBMEJD"
      ],
      "blue_solution_time": 17
    },
    {
      "rt": 2159,
      "stimulus": "<center>The answer is: <h2 style=\"color:#069\"><p>JUMBLED</p></h2><br/><br/></center>",
      "button_pressed": "0",
      "trial_type": "html-button-response",
      "trial_index": 9,
      "time_elapsed": 119849,
      "internal_node_id": "0.0-3.1-2.1-0.1",
      "responseType": "finish",
      "participantID": "tmhuelnc9xrg9av98k6qd0zgwc3mz32k",
      "black_problems": [
        "AXPLINE"
      ],
      "blue_problems": [
        "LUBMEJD"
      ],
      "blue_solution_time": 17
    },
    {
      "rt": 9486,
      "responses": "{\"Q0\":6}",
      "trial_type": "survey-likert",
      "trial_index": 10,
      "time_elapsed": 129337,
      "internal_node_id": "0.0-3.1-3.1-0.1",
      "responseType": "finish",
      "participantID": "tmhuelnc9xrg9av98k6qd0zgwc3mz32k",
      "black_problems": [
        "AXPLINE"
      ],
      "blue_problems": [
        "LUBMEJD"
      ],
      "blue_solution_time": 17
    }
  ],
  "__v": 0
},{
  "_id": {
    "$oid": "62b117537cd3240004e0fb5b"
  },
  "data": {
    "responseType": "start",
    "participantID": "6ec7gswvw1kzlbn3aq1oa4ylcwpfcdyg",
    "black_problems": [
      "AXPLINE"
    ],
    "blue_problems": [
      "AYKAWLJ"
    ],
    "blue_solution_time": 19
  },
  "__v": 0
},{
  "_id": {
    "$oid": "62b1176a7cd3240004e0fb5c"
  },
  "data": {
    "responseType": "start",
    "participantID": "6tpbvgokkhazx5823eyu9zgs8v0gqxr3",
    "black_problems": [
      "AXPLINE"
    ],
    "blue_problems": [
      "LUBMEJD"
    ],
    "blue_solution_time": 17
  },
  "__v": 0
},{
  "_id": {
    "$oid": "62b117a87cd3240004e0fb5d"
  },
  "data": {
    "responseType": "start",
    "participantID": "ssc47afmrsrn41r5znsytbrm7fnksx4r",
    "black_problems": [
      "LUBMEJD"
    ],
    "blue_problems": [
      "AALRYS"
    ],
    "blue_solution_time": 19
  },
  "__v": 0
},{
  "_id": {
    "$oid": "62b117d67cd3240004e0fb5e"
  },
  "data": {
    "responseType": "start",
    "participantID": "hvldmbs139vj9po0qny3munmy0rwzdqa",
    "black_problems": [
      "AYUGNHT"
    ],
    "blue_problems": [
      "LUBMEJD"
    ],
    "blue_solution_time": 16
  },
  "__v": 0
},{
  "_id": {
    "$oid": "62b117e47cd3240004e0fb5f"
  },
  "data": {
    "responseType": "start",
    "participantID": "ke65p8juv3pe5jvcxs99ddg0su4bdl06",
    "black_problems": [
      "AALRYS"
    ],
    "blue_problems": [
      "LUBMEJD"
    ],
    "blue_solution_time": 12
  },
  "__v": 0
},{
  "_id": {
    "$oid": "62b117e77cd3240004e0fb60"
  },
  "data": {
    "responseType": "start",
    "participantID": "6cfduaeb00m7lq3amuy01rxqppu1s5cp",
    "black_problems": [
      "AYUGNHT"
    ],
    "blue_problems": [
      "AXPLINE"
    ],
    "blue_solution_time": 12
  },
  "__v": 0
},{
  "_id": {
    "$oid": "62b117ea7cd3240004e0fb61"
  },
  "data": {
    "responseType": "start",
    "participantID": "qlrrmvx9vm2wovy6yabn1htdagwmwb4p",
    "black_problems": [
      "LUBMEJD"
    ],
    "blue_problems": [
      "AYKAWLJ"
    ],
    "blue_solution_time": 18
  },
  "__v": 0
},{
  "_id": {
    "$oid": "62b117fe7cd3240004e0fb62"
  },
  "data": [
    {
      "rt": 12664,
      "responses": "{\"Q0\":\" I consent to participate\"}",
      "trial_type": "survey-multi-choice",
      "trial_index": 0,
      "time_elapsed": 12738,
      "internal_node_id": "0.0-0.0",
      "responseType": "finish",
      "participantID": "6tpbvgokkhazx5823eyu9zgs8v0gqxr3",
      "black_problems": [
        "AXPLINE"
      ],
      "blue_problems": [
        "LUBMEJD"
      ],
      "blue_solution_time": 17
    },
    {
      "trial_type": "call-function",
      "trial_index": 1,
      "time_elapsed": 12751,
      "internal_node_id": "0.0-1.0",
      "responseType": "finish",
      "participantID": "6tpbvgokkhazx5823eyu9zgs8v0gqxr3",
      "black_problems": [
        "AXPLINE"
      ],
      "blue_problems": [
        "LUBMEJD"
      ],
      "blue_solution_time": 17
    },
    {
      "view_history": "[{\"page_index\":0,\"viewing_time\":7660},{\"page_index\":1,\"viewing_time\":12993},{\"page_index\":2,\"viewing_time\":8615}]",
      "rt": 29269,
      "trial_type": "instructions",
      "trial_index": 2,
      "time_elapsed": 42020,
      "internal_node_id": "0.0-2.0-0.0",
      "responseType": "finish",
      "participantID": "6tpbvgokkhazx5823eyu9zgs8v0gqxr3",
      "black_problems": [
        "AXPLINE"
      ],
      "blue_problems": [
        "LUBMEJD"
      ],
      "blue_solution_time": 17
    },
    {
      "rt": 11148,
      "responses": "{\"Q0\":\"The answer to the blue colored anagram will be shown after 2 minutes.\"}",
      "trial_type": "survey-multi-choice",
      "trial_index": 3,
      "time_elapsed": 53170,
      "internal_node_id": "0.0-2.0-1.0",
      "responseType": "finish",
      "participantID": "6tpbvgokkhazx5823eyu9zgs8v0gqxr3",
      "black_problems": [
        "AXPLINE"
      ],
      "blue_problems": [
        "LUBMEJD"
      ],
      "blue_solution_time": 17
    },
    {
      "rt": 6820,
      "stimulus": "<center><p>Now the <b>black</b> anagram will be shown to you.</p> <p>If you are not able to solve the anagram in <b>2 minutes</b>, you will be taken to the next screen.</p> <p>Press 'v' to view the anagram. </p></center>",
      "key_press": 86,
      "trial_type": "html-keyboard-response",
      "trial_index": 4,
      "time_elapsed": 60001,
      "internal_node_id": "0.0-3.0-0.0",
      "responseType": "finish",
      "participantID": "6tpbvgokkhazx5823eyu9zgs8v0gqxr3",
      "black_problems": [
        "AXPLINE"
      ],
      "blue_problems": [
        "LUBMEJD"
      ],
      "blue_solution_time": 17
    },
    {
      "rt": 62672,
      "responses": "{\"Q0\":\"explain\"}",
      "trial_type": "survey-text",
      "trial_index": 5,
      "time_elapsed": 122678,
      "internal_node_id": "0.0-3.0-1.0",
      "responseType": "finish",
      "participantID": "6tpbvgokkhazx5823eyu9zgs8v0gqxr3",
      "black_problems": [
        "AXPLINE"
      ],
      "blue_problems": [
        "LUBMEJD"
      ],
      "blue_solution_time": 17
    },
    {
      "rt": 13783,
      "responses": "{\"Q0\":5}",
      "trial_type": "survey-likert",
      "trial_index": 6,
      "time_elapsed": 136462,
      "internal_node_id": "0.0-3.0-3.0-0.0",
      "responseType": "finish",
      "participantID": "6tpbvgokkhazx5823eyu9zgs8v0gqxr3",
      "black_problems": [
        "AXPLINE"
      ],
      "blue_problems": [
        "LUBMEJD"
      ],
      "blue_solution_time": 17
    },
    {
      "rt": 2820,
      "stimulus": "<center><p>Now the <b style=\"color:#069\">blue</b> anagram will be shown to you.</p> <p>If you are not able to solve the anagram in <b>2 minutes</b>, the answer will be shown to you.</p> <p>Press 'v' to view the anagram. </p></center>",
      "key_press": 86,
      "trial_type": "html-keyboard-response",
      "trial_index": 7,
      "time_elapsed": 139307,
      "internal_node_id": "0.0-3.1-0.1",
      "responseType": "finish",
      "participantID": "6tpbvgokkhazx5823eyu9zgs8v0gqxr3",
      "black_problems": [
        "AXPLINE"
      ],
      "blue_problems": [
        "LUBMEJD"
      ],
      "blue_solution_time": 17
    },
    {
      "rt": 14936,
      "responses": "{\"Q0\":\"jumbled\"}",
      "trial_type": "survey-text",
      "trial_index": 8,
      "time_elapsed": 154244,
      "internal_node_id": "0.0-3.1-1.1",
      "responseType": "finish",
      "participantID": "6tpbvgokkhazx5823eyu9zgs8v0gqxr3",
      "black_problems": [
        "AXPLINE"
      ],
      "blue_problems": [
        "LUBMEJD"
      ],
      "blue_solution_time": 17
    },
    {
      "rt": 1685,
      "stimulus": "<center>The answer is: <h2 style=\"color:#069\"><p>JUMBLED</p></h2><br/><br/></center>",
      "button_pressed": "0",
      "trial_type": "html-button-response",
      "trial_index": 9,
      "time_elapsed": 155931,
      "internal_node_id": "0.0-3.1-2.1-0.1",
      "responseType": "finish",
      "participantID": "6tpbvgokkhazx5823eyu9zgs8v0gqxr3",
      "black_problems": [
        "AXPLINE"
      ],
      "blue_problems": [
        "LUBMEJD"
      ],
      "blue_solution_time": 17
    },
    {
      "rt": 3687,
      "responses": "{\"Q0\":5}",
      "trial_type": "survey-likert",
      "trial_index": 10,
      "time_elapsed": 159619,
      "internal_node_id": "0.0-3.1-3.1-0.1",
      "responseType": "finish",
      "participantID": "6tpbvgokkhazx5823eyu9zgs8v0gqxr3",
      "black_problems": [
        "AXPLINE"
      ],
      "blue_problems": [
        "LUBMEJD"
      ],
      "blue_solution_time": 17
    }
  ],
  "__v": 0
},{
  "_id": {
    "$oid": "62b118027cd3240004e0fb63"
  },
  "data": {
    "responseType": "start",
    "participantID": "twcqzmbrjv08nb3toyuz6hnohcdh9uar",
    "black_problems": [
      "LUBMEJD"
    ],
    "blue_problems": [
      "AYUGNHT"
    ],
    "blue_solution_time": 11
  },
  "__v": 0
},{
  "_id": {
    "$oid": "62b118097cd3240004e0fb64"
  },
  "data": {
    "responseType": "start",
    "participantID": "wmrgb0cqc31ra3qhaznk5utgd5wcpvcv",
    "black_problems": [
      "AXPLINE"
    ],
    "blue_problems": [
      "AYUGNHT"
    ],
    "blue_solution_time": 13
  },
  "__v": 0
},{
  "_id": {
    "$oid": "62b118177cd3240004e0fb65"
  },
  "data": [
    {
      "rt": 15875,
      "responses": "{\"Q0\":\" I consent to participate\"}",
      "trial_type": "survey-multi-choice",
      "trial_index": 0,
      "time_elapsed": 15880,
      "internal_node_id": "0.0-0.0",
      "responseType": "finish",
      "participantID": "hvldmbs139vj9po0qny3munmy0rwzdqa",
      "black_problems": [
        "AYUGNHT"
      ],
      "blue_problems": [
        "LUBMEJD"
      ],
      "blue_solution_time": 16
    },
    {
      "trial_type": "call-function",
      "trial_index": 1,
      "time_elapsed": 15882,
      "internal_node_id": "0.0-1.0",
      "responseType": "finish",
      "participantID": "hvldmbs139vj9po0qny3munmy0rwzdqa",
      "black_problems": [
        "AYUGNHT"
      ],
      "blue_problems": [
        "LUBMEJD"
      ],
      "blue_solution_time": 16
    },
    {
      "view_history": "[{\"page_index\":0,\"viewing_time\":5914},{\"page_index\":1,\"viewing_time\":7497},{\"page_index\":2,\"viewing_time\":5455}]",
      "rt": 18866,
      "trial_type": "instructions",
      "trial_index": 2,
      "time_elapsed": 34749,
      "internal_node_id": "0.0-2.0-0.0",
      "responseType": "finish",
      "participantID": "hvldmbs139vj9po0qny3munmy0rwzdqa",
      "black_problems": [
        "AYUGNHT"
      ],
      "blue_problems": [
        "LUBMEJD"
      ],
      "blue_solution_time": 16
    },
    {
      "rt": 8591,
      "responses": "{\"Q0\":\"The answer to the blue colored anagram will be shown after 2 minutes.\"}",
      "trial_type": "survey-multi-choice",
      "trial_index": 3,
      "time_elapsed": 43342,
      "internal_node_id": "0.0-2.0-1.0",
      "responseType": "finish",
      "participantID": "hvldmbs139vj9po0qny3munmy0rwzdqa",
      "black_problems": [
        "AYUGNHT"
      ],
      "blue_problems": [
        "LUBMEJD"
      ],
      "blue_solution_time": 16
    },
    {
      "rt": 2745,
      "stimulus": "<center><p>Now the <b>black</b> anagram will be shown to you.</p> <p>If you are not able to solve the anagram in <b>2 minutes</b>, you will be taken to the next screen.</p> <p>Press 'v' to view the anagram. </p></center>",
      "key_press": 86,
      "trial_type": "html-keyboard-response",
      "trial_index": 4,
      "time_elapsed": 46089,
      "internal_node_id": "0.0-3.0-0.0",
      "responseType": "finish",
      "participantID": "hvldmbs139vj9po0qny3munmy0rwzdqa",
      "black_problems": [
        "AYUGNHT"
      ],
      "blue_problems": [
        "LUBMEJD"
      ],
      "blue_solution_time": 16
    },
    {
      "rt": 4938,
      "responses": "{\"Q0\":\"nauhty\"}",
      "trial_type": "survey-text",
      "trial_index": 5,
      "time_elapsed": 51029,
      "internal_node_id": "0.0-3.0-1.0",
      "responseType": "finish",
      "participantID": "hvldmbs139vj9po0qny3munmy0rwzdqa",
      "black_problems": [
        "AYUGNHT"
      ],
      "blue_problems": [
        "LUBMEJD"
      ],
      "blue_solution_time": 16
    },
    {
      "rt": 6287,
      "responses": "{\"Q0\":5}",
      "trial_type": "survey-likert",
      "trial_index": 6,
      "time_elapsed": 57319,
      "internal_node_id": "0.0-3.0-3.0-0.0",
      "responseType": "finish",
      "participantID": "hvldmbs139vj9po0qny3munmy0rwzdqa",
      "black_problems": [
        "AYUGNHT"
      ],
      "blue_problems": [
        "LUBMEJD"
      ],
      "blue_solution_time": 16
    },
    {
      "rt": 1659,
      "stimulus": "<center><p>Now the <b style=\"color:#069\">blue</b> anagram will be shown to you.</p> <p>If you are not able to solve the anagram in <b>2 minutes</b>, the answer will be shown to you.</p> <p>Press 'v' to view the anagram. </p></center>",
      "key_press": 86,
      "trial_type": "html-keyboard-response",
      "trial_index": 7,
      "time_elapsed": 58984,
      "internal_node_id": "0.0-3.1-0.1",
      "responseType": "finish",
      "participantID": "hvldmbs139vj9po0qny3munmy0rwzdqa",
      "black_problems": [
        "AYUGNHT"
      ],
      "blue_problems": [
        "LUBMEJD"
      ],
      "blue_solution_time": 16
    },
    {
      "rt": 16012,
      "responses": "{\"Q0\":\"\"}",
      "trial_type": "survey-text",
      "trial_index": 8,
      "time_elapsed": 74998,
      "internal_node_id": "0.0-3.1-1.1",
      "responseType": "finish",
      "participantID": "hvldmbs139vj9po0qny3munmy0rwzdqa",
      "black_problems": [
        "AYUGNHT"
      ],
      "blue_problems": [
        "LUBMEJD"
      ],
      "blue_solution_time": 16
    },
    {
      "rt": 2192,
      "stimulus": "<center>The answer is: <h2 style=\"color:#069\"><p>JUMBLED</p></h2><br/><br/></center>",
      "button_pressed": "0",
      "trial_type": "html-button-response",
      "trial_index": 9,
      "time_elapsed": 77197,
      "internal_node_id": "0.0-3.1-2.1-0.1",
      "responseType": "finish",
      "participantID": "hvldmbs139vj9po0qny3munmy0rwzdqa",
      "black_problems": [
        "AYUGNHT"
      ],
      "blue_problems": [
        "LUBMEJD"
      ],
      "blue_solution_time": 16
    },
    {
      "rt": 3368,
      "responses": "{\"Q0\":0}",
      "trial_type": "survey-likert",
      "trial_index": 10,
      "time_elapsed": 80567,
      "internal_node_id": "0.0-3.1-3.1-0.1",
      "responseType": "finish",
      "participantID": "hvldmbs139vj9po0qny3munmy0rwzdqa",
      "black_problems": [
        "AYUGNHT"
      ],
      "blue_problems": [
        "LUBMEJD"
      ],
      "blue_solution_time": 16
    }
  ],
  "__v": 0
},{
  "_id": {
    "$oid": "62b1181d7cd3240004e0fb66"
  },
  "data": [
    {
      "rt": 5770,
      "responses": "{\"Q0\":\" I consent to participate\"}",
      "trial_type": "survey-multi-choice",
      "trial_index": 0,
      "time_elapsed": 5781,
      "internal_node_id": "0.0-0.0",
      "responseType": "finish",
      "participantID": "ke65p8juv3pe5jvcxs99ddg0su4bdl06",
      "black_problems": [
        "AALRYS"
      ],
      "blue_problems": [
        "LUBMEJD"
      ],
      "blue_solution_time": 12
    },
    {
      "trial_type": "call-function",
      "trial_index": 1,
      "time_elapsed": 5788,
      "internal_node_id": "0.0-1.0",
      "responseType": "finish",
      "participantID": "ke65p8juv3pe5jvcxs99ddg0su4bdl06",
      "black_problems": [
        "AALRYS"
      ],
      "blue_problems": [
        "LUBMEJD"
      ],
      "blue_solution_time": 12
    },
    {
      "view_history": "[{\"page_index\":0,\"viewing_time\":6088},{\"page_index\":1,\"viewing_time\":7271},{\"page_index\":2,\"viewing_time\":6266}]",
      "rt": 19628,
      "trial_type": "instructions",
      "trial_index": 2,
      "time_elapsed": 25416,
      "internal_node_id": "0.0-2.0-0.0",
      "responseType": "finish",
      "participantID": "ke65p8juv3pe5jvcxs99ddg0su4bdl06",
      "black_problems": [
        "AALRYS"
      ],
      "blue_problems": [
        "LUBMEJD"
      ],
      "blue_solution_time": 12
    },
    {
      "rt": 7330,
      "responses": "{\"Q0\":\"The answer to the blue colored anagram will be shown after 2 minutes.\"}",
      "trial_type": "survey-multi-choice",
      "trial_index": 3,
      "time_elapsed": 32751,
      "internal_node_id": "0.0-2.0-1.0",
      "responseType": "finish",
      "participantID": "ke65p8juv3pe5jvcxs99ddg0su4bdl06",
      "black_problems": [
        "AALRYS"
      ],
      "blue_problems": [
        "LUBMEJD"
      ],
      "blue_solution_time": 12
    },
    {
      "rt": 2875,
      "stimulus": "<center><p>Now the <b>black</b> anagram will be shown to you.</p> <p>If you are not able to solve the anagram in <b>2 minutes</b>, you will be taken to the next screen.</p> <p>Press 'v' to view the anagram. </p></center>",
      "key_press": 86,
      "trial_type": "html-keyboard-response",
      "trial_index": 4,
      "time_elapsed": 35629,
      "internal_node_id": "0.0-3.0-0.0",
      "responseType": "finish",
      "participantID": "ke65p8juv3pe5jvcxs99ddg0su4bdl06",
      "black_problems": [
        "AALRYS"
      ],
      "blue_problems": [
        "LUBMEJD"
      ],
      "blue_solution_time": 12
    },
    {
      "rt": 4322,
      "responses": "{\"Q0\":\"salary\"}",
      "trial_type": "survey-text",
      "trial_index": 5,
      "time_elapsed": 39954,
      "internal_node_id": "0.0-3.0-1.0",
      "responseType": "finish",
      "participantID": "ke65p8juv3pe5jvcxs99ddg0su4bdl06",
      "black_problems": [
        "AALRYS"
      ],
      "blue_problems": [
        "LUBMEJD"
      ],
      "blue_solution_time": 12
    },
    {
      "rt": 7933,
      "responses": "{\"Q0\":5}",
      "trial_type": "survey-likert",
      "trial_index": 6,
      "time_elapsed": 47889,
      "internal_node_id": "0.0-3.0-3.0-0.0",
      "responseType": "finish",
      "participantID": "ke65p8juv3pe5jvcxs99ddg0su4bdl06",
      "black_problems": [
        "AALRYS"
      ],
      "blue_problems": [
        "LUBMEJD"
      ],
      "blue_solution_time": 12
    },
    {
      "rt": 5657,
      "stimulus": "<center><p>Now the <b style=\"color:#069\">blue</b> anagram will be shown to you.</p> <p>If you are not able to solve the anagram in <b>2 minutes</b>, the answer will be shown to you.</p> <p>Press 'v' to view the anagram. </p></center>",
      "key_press": 86,
      "trial_type": "html-keyboard-response",
      "trial_index": 7,
      "time_elapsed": 53548,
      "internal_node_id": "0.0-3.1-0.1",
      "responseType": "finish",
      "participantID": "ke65p8juv3pe5jvcxs99ddg0su4bdl06",
      "black_problems": [
        "AALRYS"
      ],
      "blue_problems": [
        "LUBMEJD"
      ],
      "blue_solution_time": 12
    },
    {
      "rt": 4000,
      "responses": "{\"Q0\":\"jumbled\"}",
      "trial_type": "survey-text",
      "trial_index": 8,
      "time_elapsed": 57549,
      "internal_node_id": "0.0-3.1-1.1",
      "responseType": "finish",
      "participantID": "ke65p8juv3pe5jvcxs99ddg0su4bdl06",
      "black_problems": [
        "AALRYS"
      ],
      "blue_problems": [
        "LUBMEJD"
      ],
      "blue_solution_time": 12
    },
    {
      "rt": 2591,
      "stimulus": "<center>The answer is: <h2 style=\"color:#069\"><p>JUMBLED</p></h2><br/><br/></center>",
      "button_pressed": "0",
      "trial_type": "html-button-response",
      "trial_index": 9,
      "time_elapsed": 60141,
      "internal_node_id": "0.0-3.1-2.1-0.1",
      "responseType": "finish",
      "participantID": "ke65p8juv3pe5jvcxs99ddg0su4bdl06",
      "black_problems": [
        "AALRYS"
      ],
      "blue_problems": [
        "LUBMEJD"
      ],
      "blue_solution_time": 12
    },
    {
      "rt": 2737,
      "responses": "{\"Q0\":5}",
      "trial_type": "survey-likert",
      "trial_index": 10,
      "time_elapsed": 62880,
      "internal_node_id": "0.0-3.1-3.1-0.1",
      "responseType": "finish",
      "participantID": "ke65p8juv3pe5jvcxs99ddg0su4bdl06",
      "black_problems": [
        "AALRYS"
      ],
      "blue_problems": [
        "LUBMEJD"
      ],
      "blue_solution_time": 12
    }
  ],
  "__v": 0
},{
  "_id": {
    "$oid": "62b118287cd3240004e0fb67"
  },
  "data": [
    {
      "rt": 14474,
      "responses": "{\"Q0\":\" I consent to participate\"}",
      "trial_type": "survey-multi-choice",
      "trial_index": 0,
      "time_elapsed": 14478,
      "internal_node_id": "0.0-0.0",
      "responseType": "finish",
      "participantID": "6cfduaeb00m7lq3amuy01rxqppu1s5cp",
      "black_problems": [
        "AYUGNHT"
      ],
      "blue_problems": [
        "AXPLINE"
      ],
      "blue_solution_time": 12
    },
    {
      "trial_type": "call-function",
      "trial_index": 1,
      "time_elapsed": 14484,
      "internal_node_id": "0.0-1.0",
      "responseType": "finish",
      "participantID": "6cfduaeb00m7lq3amuy01rxqppu1s5cp",
      "black_problems": [
        "AYUGNHT"
      ],
      "blue_problems": [
        "AXPLINE"
      ],
      "blue_solution_time": 12
    },
    {
      "view_history": "[{\"page_index\":0,\"viewing_time\":6495},{\"page_index\":1,\"viewing_time\":12376},{\"page_index\":2,\"viewing_time\":5504}]",
      "rt": 24375,
      "trial_type": "instructions",
      "trial_index": 2,
      "time_elapsed": 38860,
      "internal_node_id": "0.0-2.0-0.0",
      "responseType": "finish",
      "participantID": "6cfduaeb00m7lq3amuy01rxqppu1s5cp",
      "black_problems": [
        "AYUGNHT"
      ],
      "blue_problems": [
        "AXPLINE"
      ],
      "blue_solution_time": 12
    },
    {
      "rt": 9094,
      "responses": "{\"Q0\":\"The answer to the blue colored anagram will be shown after 2 minutes.\"}",
      "trial_type": "survey-multi-choice",
      "trial_index": 3,
      "time_elapsed": 47957,
      "internal_node_id": "0.0-2.0-1.0",
      "responseType": "finish",
      "participantID": "6cfduaeb00m7lq3amuy01rxqppu1s5cp",
      "black_problems": [
        "AYUGNHT"
      ],
      "blue_problems": [
        "AXPLINE"
      ],
      "blue_solution_time": 12
    },
    {
      "rt": 2632,
      "stimulus": "<center><p>Now the <b>black</b> anagram will be shown to you.</p> <p>If you are not able to solve the anagram in <b>2 minutes</b>, you will be taken to the next screen.</p> <p>Press 'v' to view the anagram. </p></center>",
      "key_press": 86,
      "trial_type": "html-keyboard-response",
      "trial_index": 4,
      "time_elapsed": 50595,
      "internal_node_id": "0.0-3.0-0.0",
      "responseType": "finish",
      "participantID": "6cfduaeb00m7lq3amuy01rxqppu1s5cp",
      "black_problems": [
        "AYUGNHT"
      ],
      "blue_problems": [
        "AXPLINE"
      ],
      "blue_solution_time": 12
    },
    {
      "rt": 6464,
      "responses": "{\"Q0\":\"Naughty\"}",
      "trial_type": "survey-text",
      "trial_index": 5,
      "time_elapsed": 57061,
      "internal_node_id": "0.0-3.0-1.0",
      "responseType": "finish",
      "participantID": "6cfduaeb00m7lq3amuy01rxqppu1s5cp",
      "black_problems": [
        "AYUGNHT"
      ],
      "blue_problems": [
        "AXPLINE"
      ],
      "blue_solution_time": 12
    },
    {
      "rt": 7334,
      "responses": "{\"Q0\":5}",
      "trial_type": "survey-likert",
      "trial_index": 6,
      "time_elapsed": 64397,
      "internal_node_id": "0.0-3.0-3.0-0.0",
      "responseType": "finish",
      "participantID": "6cfduaeb00m7lq3amuy01rxqppu1s5cp",
      "black_problems": [
        "AYUGNHT"
      ],
      "blue_problems": [
        "AXPLINE"
      ],
      "blue_solution_time": 12
    },
    {
      "rt": 1841,
      "stimulus": "<center><p>Now the <b style=\"color:#069\">blue</b> anagram will be shown to you.</p> <p>If you are not able to solve the anagram in <b>2 minutes</b>, the answer will be shown to you.</p> <p>Press 'v' to view the anagram. </p></center>",
      "key_press": 86,
      "trial_type": "html-keyboard-response",
      "trial_index": 7,
      "time_elapsed": 66251,
      "internal_node_id": "0.0-3.1-0.1",
      "responseType": "finish",
      "participantID": "6cfduaeb00m7lq3amuy01rxqppu1s5cp",
      "black_problems": [
        "AYUGNHT"
      ],
      "blue_problems": [
        "AXPLINE"
      ],
      "blue_solution_time": 12
    },
    {
      "rt": 6345,
      "responses": "{\"Q0\":\"Explain\"}",
      "trial_type": "survey-text",
      "trial_index": 8,
      "time_elapsed": 72596,
      "internal_node_id": "0.0-3.1-1.1",
      "responseType": "finish",
      "participantID": "6cfduaeb00m7lq3amuy01rxqppu1s5cp",
      "black_problems": [
        "AYUGNHT"
      ],
      "blue_problems": [
        "AXPLINE"
      ],
      "blue_solution_time": 12
    },
    {
      "rt": 1023,
      "stimulus": "<center>The answer is: <h2 style=\"color:#069\"><p>EXPLAIN</p></h2><br/><br/></center>",
      "button_pressed": "0",
      "trial_type": "html-button-response",
      "trial_index": 9,
      "time_elapsed": 73621,
      "internal_node_id": "0.0-3.1-2.1-0.1",
      "responseType": "finish",
      "participantID": "6cfduaeb00m7lq3amuy01rxqppu1s5cp",
      "black_problems": [
        "AYUGNHT"
      ],
      "blue_problems": [
        "AXPLINE"
      ],
      "blue_solution_time": 12
    },
    {
      "rt": 5599,
      "responses": "{\"Q0\":6}",
      "trial_type": "survey-likert",
      "trial_index": 10,
      "time_elapsed": 79220,
      "internal_node_id": "0.0-3.1-3.1-0.1",
      "responseType": "finish",
      "participantID": "6cfduaeb00m7lq3amuy01rxqppu1s5cp",
      "black_problems": [
        "AYUGNHT"
      ],
      "blue_problems": [
        "AXPLINE"
      ],
      "blue_solution_time": 12
    }
  ],
  "__v": 0
},{
  "_id": {
    "$oid": "62b118357cd3240004e0fb68"
  },
  "data": [
    {
      "rt": 4027,
      "responses": "{\"Q0\":\" I consent to participate\"}",
      "trial_type": "survey-multi-choice",
      "trial_index": 0,
      "time_elapsed": 4031,
      "internal_node_id": "0.0-0.0",
      "responseType": "finish",
      "participantID": "6ec7gswvw1kzlbn3aq1oa4ylcwpfcdyg",
      "black_problems": [
        "AXPLINE"
      ],
      "blue_problems": [
        "AYKAWLJ"
      ],
      "blue_solution_time": 19
    },
    {
      "trial_type": "call-function",
      "trial_index": 1,
      "time_elapsed": 4035,
      "internal_node_id": "0.0-1.0",
      "responseType": "finish",
      "participantID": "6ec7gswvw1kzlbn3aq1oa4ylcwpfcdyg",
      "black_problems": [
        "AXPLINE"
      ],
      "blue_problems": [
        "AYKAWLJ"
      ],
      "blue_solution_time": 19
    },
    {
      "view_history": "[{\"page_index\":0,\"viewing_time\":11143},{\"page_index\":1,\"viewing_time\":15140},{\"page_index\":2,\"viewing_time\":6385}]",
      "rt": 32669,
      "trial_type": "instructions",
      "trial_index": 2,
      "time_elapsed": 36704,
      "internal_node_id": "0.0-2.0-0.0",
      "responseType": "finish",
      "participantID": "6ec7gswvw1kzlbn3aq1oa4ylcwpfcdyg",
      "black_problems": [
        "AXPLINE"
      ],
      "blue_problems": [
        "AYKAWLJ"
      ],
      "blue_solution_time": 19
    },
    {
      "rt": 19834,
      "responses": "{\"Q0\":\"The answer to the blue colored anagram will be shown after 2 minutes.\"}",
      "trial_type": "survey-multi-choice",
      "trial_index": 3,
      "time_elapsed": 56540,
      "internal_node_id": "0.0-2.0-1.0",
      "responseType": "finish",
      "participantID": "6ec7gswvw1kzlbn3aq1oa4ylcwpfcdyg",
      "black_problems": [
        "AXPLINE"
      ],
      "blue_problems": [
        "AYKAWLJ"
      ],
      "blue_solution_time": 19
    },
    {
      "rt": 6089,
      "stimulus": "<center><p>Now the <b>black</b> anagram will be shown to you.</p> <p>If you are not able to solve the anagram in <b>2 minutes</b>, you will be taken to the next screen.</p> <p>Press 'v' to view the anagram. </p></center>",
      "key_press": 86,
      "trial_type": "html-keyboard-response",
      "trial_index": 4,
      "time_elapsed": 62631,
      "internal_node_id": "0.0-3.0-0.0",
      "responseType": "finish",
      "participantID": "6ec7gswvw1kzlbn3aq1oa4ylcwpfcdyg",
      "black_problems": [
        "AXPLINE"
      ],
      "blue_problems": [
        "AYKAWLJ"
      ],
      "blue_solution_time": 19
    },
    {
      "rt": 120000,
      "responses": "{\"Q0\":\"\"}",
      "trial_type": "survey-text",
      "trial_index": 5,
      "time_elapsed": 182633,
      "internal_node_id": "0.0-3.0-1.0",
      "responseType": "finish",
      "participantID": "6ec7gswvw1kzlbn3aq1oa4ylcwpfcdyg",
      "black_problems": [
        "AXPLINE"
      ],
      "blue_problems": [
        "AYKAWLJ"
      ],
      "blue_solution_time": 19
    },
    {
      "rt": 14253,
      "responses": "{\"Q0\":0}",
      "trial_type": "survey-likert",
      "trial_index": 6,
      "time_elapsed": 196887,
      "internal_node_id": "0.0-3.0-3.0-0.0",
      "responseType": "finish",
      "participantID": "6ec7gswvw1kzlbn3aq1oa4ylcwpfcdyg",
      "black_problems": [
        "AXPLINE"
      ],
      "blue_problems": [
        "AYKAWLJ"
      ],
      "blue_solution_time": 19
    },
    {
      "rt": 3028,
      "stimulus": "<center><p>Now the <b style=\"color:#069\">blue</b> anagram will be shown to you.</p> <p>If you are not able to solve the anagram in <b>2 minutes</b>, the answer will be shown to you.</p> <p>Press 'v' to view the anagram. </p></center>",
      "key_press": 86,
      "trial_type": "html-keyboard-response",
      "trial_index": 7,
      "time_elapsed": 199917,
      "internal_node_id": "0.0-3.1-0.1",
      "responseType": "finish",
      "participantID": "6ec7gswvw1kzlbn3aq1oa4ylcwpfcdyg",
      "black_problems": [
        "AXPLINE"
      ],
      "blue_problems": [
        "AYKAWLJ"
      ],
      "blue_solution_time": 19
    },
    {
      "rt": 19008,
      "responses": "{\"Q0\":\"jak\"}",
      "trial_type": "survey-text",
      "trial_index": 8,
      "time_elapsed": 218927,
      "internal_node_id": "0.0-3.1-1.1",
      "responseType": "finish",
      "participantID": "6ec7gswvw1kzlbn3aq1oa4ylcwpfcdyg",
      "black_problems": [
        "AXPLINE"
      ],
      "blue_problems": [
        "AYKAWLJ"
      ],
      "blue_solution_time": 19
    },
    {
      "rt": 8163,
      "stimulus": "<center>The answer is: <h2 style=\"color:#069\"><p>JAYWALK</p></h2><br/><br/></center>",
      "button_pressed": "0",
      "trial_type": "html-button-response",
      "trial_index": 9,
      "time_elapsed": 227091,
      "internal_node_id": "0.0-3.1-2.1-0.1",
      "responseType": "finish",
      "participantID": "6ec7gswvw1kzlbn3aq1oa4ylcwpfcdyg",
      "black_problems": [
        "AXPLINE"
      ],
      "blue_problems": [
        "AYKAWLJ"
      ],
      "blue_solution_time": 19
    },
    {
      "rt": 2353,
      "responses": "{\"Q0\":0}",
      "trial_type": "survey-likert",
      "trial_index": 10,
      "time_elapsed": 229445,
      "internal_node_id": "0.0-3.1-3.1-0.1",
      "responseType": "finish",
      "participantID": "6ec7gswvw1kzlbn3aq1oa4ylcwpfcdyg",
      "black_problems": [
        "AXPLINE"
      ],
      "blue_problems": [
        "AYKAWLJ"
      ],
      "blue_solution_time": 19
    }
  ],
  "__v": 0
},{
  "_id": {
    "$oid": "62b1183d7cd3240004e0fb69"
  },
  "data": [
    {
      "rt": 5945,
      "responses": "{\"Q0\":\" I consent to participate\"}",
      "trial_type": "survey-multi-choice",
      "trial_index": 0,
      "time_elapsed": 5992,
      "internal_node_id": "0.0-0.0",
      "responseType": "finish",
      "participantID": "ssc47afmrsrn41r5znsytbrm7fnksx4r",
      "black_problems": [
        "LUBMEJD"
      ],
      "blue_problems": [
        "AALRYS"
      ],
      "blue_solution_time": 19
    },
    {
      "trial_type": "call-function",
      "trial_index": 1,
      "time_elapsed": 5997,
      "internal_node_id": "0.0-1.0",
      "responseType": "finish",
      "participantID": "ssc47afmrsrn41r5znsytbrm7fnksx4r",
      "black_problems": [
        "LUBMEJD"
      ],
      "blue_problems": [
        "AALRYS"
      ],
      "blue_solution_time": 19
    },
    {
      "view_history": "[{\"page_index\":0,\"viewing_time\":22746},{\"page_index\":1,\"viewing_time\":20432},{\"page_index\":2,\"viewing_time\":9528}]",
      "rt": 52706,
      "trial_type": "instructions",
      "trial_index": 2,
      "time_elapsed": 58704,
      "internal_node_id": "0.0-2.0-0.0",
      "responseType": "finish",
      "participantID": "ssc47afmrsrn41r5znsytbrm7fnksx4r",
      "black_problems": [
        "LUBMEJD"
      ],
      "blue_problems": [
        "AALRYS"
      ],
      "blue_solution_time": 19
    },
    {
      "rt": 39894,
      "responses": "{\"Q0\":\"The answer to the blue colored anagram will be shown after 2 minutes.\"}",
      "trial_type": "survey-multi-choice",
      "trial_index": 3,
      "time_elapsed": 98600,
      "internal_node_id": "0.0-2.0-1.0",
      "responseType": "finish",
      "participantID": "ssc47afmrsrn41r5znsytbrm7fnksx4r",
      "black_problems": [
        "LUBMEJD"
      ],
      "blue_problems": [
        "AALRYS"
      ],
      "blue_solution_time": 19
    },
    {
      "rt": 11765,
      "stimulus": "<center><p>Now the <b>black</b> anagram will be shown to you.</p> <p>If you are not able to solve the anagram in <b>2 minutes</b>, you will be taken to the next screen.</p> <p>Press 'v' to view the anagram. </p></center>",
      "key_press": 86,
      "trial_type": "html-keyboard-response",
      "trial_index": 4,
      "time_elapsed": 110382,
      "internal_node_id": "0.0-3.0-0.0",
      "responseType": "finish",
      "participantID": "ssc47afmrsrn41r5znsytbrm7fnksx4r",
      "black_problems": [
        "LUBMEJD"
      ],
      "blue_problems": [
        "AALRYS"
      ],
      "blue_solution_time": 19
    },
    {
      "rt": 11998,
      "responses": "{\"Q0\":\"Jumble\"}",
      "trial_type": "survey-text",
      "trial_index": 5,
      "time_elapsed": 122382,
      "internal_node_id": "0.0-3.0-1.0",
      "responseType": "finish",
      "participantID": "ssc47afmrsrn41r5znsytbrm7fnksx4r",
      "black_problems": [
        "LUBMEJD"
      ],
      "blue_problems": [
        "AALRYS"
      ],
      "blue_solution_time": 19
    },
    {
      "rt": 16112,
      "responses": "{\"Q0\":5}",
      "trial_type": "survey-likert",
      "trial_index": 6,
      "time_elapsed": 138495,
      "internal_node_id": "0.0-3.0-3.0-0.0",
      "responseType": "finish",
      "participantID": "ssc47afmrsrn41r5znsytbrm7fnksx4r",
      "black_problems": [
        "LUBMEJD"
      ],
      "blue_problems": [
        "AALRYS"
      ],
      "blue_solution_time": 19
    },
    {
      "rt": 3452,
      "stimulus": "<center><p>Now the <b style=\"color:#069\">blue</b> anagram will be shown to you.</p> <p>If you are not able to solve the anagram in <b>2 minutes</b>, the answer will be shown to you.</p> <p>Press 'v' to view the anagram. </p></center>",
      "key_press": 86,
      "trial_type": "html-keyboard-response",
      "trial_index": 7,
      "time_elapsed": 141954,
      "internal_node_id": "0.0-3.1-0.1",
      "responseType": "finish",
      "participantID": "ssc47afmrsrn41r5znsytbrm7fnksx4r",
      "black_problems": [
        "LUBMEJD"
      ],
      "blue_problems": [
        "AALRYS"
      ],
      "blue_solution_time": 19
    },
    {
      "rt": 7779,
      "responses": "{\"Q0\":\"Salary\"}",
      "trial_type": "survey-text",
      "trial_index": 8,
      "time_elapsed": 149734,
      "internal_node_id": "0.0-3.1-1.1",
      "responseType": "finish",
      "participantID": "ssc47afmrsrn41r5znsytbrm7fnksx4r",
      "black_problems": [
        "LUBMEJD"
      ],
      "blue_problems": [
        "AALRYS"
      ],
      "blue_solution_time": 19
    },
    {
      "rt": 2527,
      "stimulus": "<center>The answer is: <h2 style=\"color:#069\"><p>SALARY</p></h2><br/><br/></center>",
      "button_pressed": "0",
      "trial_type": "html-button-response",
      "trial_index": 9,
      "time_elapsed": 152262,
      "internal_node_id": "0.0-3.1-2.1-0.1",
      "responseType": "finish",
      "participantID": "ssc47afmrsrn41r5znsytbrm7fnksx4r",
      "black_problems": [
        "LUBMEJD"
      ],
      "blue_problems": [
        "AALRYS"
      ],
      "blue_solution_time": 19
    },
    {
      "rt": 2719,
      "responses": "{\"Q0\":5}",
      "trial_type": "survey-likert",
      "trial_index": 10,
      "time_elapsed": 154983,
      "internal_node_id": "0.0-3.1-3.1-0.1",
      "responseType": "finish",
      "participantID": "ssc47afmrsrn41r5znsytbrm7fnksx4r",
      "black_problems": [
        "LUBMEJD"
      ],
      "blue_problems": [
        "AALRYS"
      ],
      "blue_solution_time": 19
    }
  ],
  "__v": 0
},{
  "_id": {
    "$oid": "62b118857cd3240004e0fb6a"
  },
  "data": [
    {
      "rt": 21134,
      "responses": "{\"Q0\":\" I consent to participate\"}",
      "trial_type": "survey-multi-choice",
      "trial_index": 0,
      "time_elapsed": 21137,
      "internal_node_id": "0.0-0.0",
      "responseType": "finish",
      "participantID": "wmrgb0cqc31ra3qhaznk5utgd5wcpvcv",
      "black_problems": [
        "AXPLINE"
      ],
      "blue_problems": [
        "AYUGNHT"
      ],
      "blue_solution_time": 13
    },
    {
      "trial_type": "call-function",
      "trial_index": 1,
      "time_elapsed": 21140,
      "internal_node_id": "0.0-1.0",
      "responseType": "finish",
      "participantID": "wmrgb0cqc31ra3qhaznk5utgd5wcpvcv",
      "black_problems": [
        "AXPLINE"
      ],
      "blue_problems": [
        "AYUGNHT"
      ],
      "blue_solution_time": 13
    },
    {
      "view_history": "[{\"page_index\":0,\"viewing_time\":10380},{\"page_index\":1,\"viewing_time\":10192},{\"page_index\":2,\"viewing_time\":7936}]",
      "rt": 28508,
      "trial_type": "instructions",
      "trial_index": 2,
      "time_elapsed": 49648,
      "internal_node_id": "0.0-2.0-0.0",
      "responseType": "finish",
      "participantID": "wmrgb0cqc31ra3qhaznk5utgd5wcpvcv",
      "black_problems": [
        "AXPLINE"
      ],
      "blue_problems": [
        "AYUGNHT"
      ],
      "blue_solution_time": 13
    },
    {
      "rt": 7815,
      "responses": "{\"Q0\":\"The answer to the blue colored anagram will be shown after 2 minutes.\"}",
      "trial_type": "survey-multi-choice",
      "trial_index": 3,
      "time_elapsed": 57464,
      "internal_node_id": "0.0-2.0-1.0",
      "responseType": "finish",
      "participantID": "wmrgb0cqc31ra3qhaznk5utgd5wcpvcv",
      "black_problems": [
        "AXPLINE"
      ],
      "blue_problems": [
        "AYUGNHT"
      ],
      "blue_solution_time": 13
    },
    {
      "rt": 3550,
      "stimulus": "<center><p>Now the <b style=\"color:#069\">blue</b> anagram will be shown to you.</p> <p>If you are not able to solve the anagram in <b>2 minutes</b>, the answer will be shown to you.</p> <p>Press 'v' to view the anagram. </p></center>",
      "key_press": 86,
      "trial_type": "html-keyboard-response",
      "trial_index": 4,
      "time_elapsed": 61015,
      "internal_node_id": "0.0-3.0-0.0",
      "responseType": "finish",
      "participantID": "wmrgb0cqc31ra3qhaznk5utgd5wcpvcv",
      "black_problems": [
        "AXPLINE"
      ],
      "blue_problems": [
        "AYUGNHT"
      ],
      "blue_solution_time": 13
    },
    {
      "rt": 13014,
      "responses": "{\"Q0\":\"\"}",
      "trial_type": "survey-text",
      "trial_index": 5,
      "time_elapsed": 74030,
      "internal_node_id": "0.0-3.0-1.0",
      "responseType": "finish",
      "participantID": "wmrgb0cqc31ra3qhaznk5utgd5wcpvcv",
      "black_problems": [
        "AXPLINE"
      ],
      "blue_problems": [
        "AYUGNHT"
      ],
      "blue_solution_time": 13
    },
    {
      "rt": 18311,
      "stimulus": "<center>The answer is: <h2 style=\"color:#069\"><p>NAUGHTY</p></h2><br/><br/></center>",
      "button_pressed": "0",
      "trial_type": "html-button-response",
      "trial_index": 6,
      "time_elapsed": 92344,
      "internal_node_id": "0.0-3.0-2.0-0.0",
      "responseType": "finish",
      "participantID": "wmrgb0cqc31ra3qhaznk5utgd5wcpvcv",
      "black_problems": [
        "AXPLINE"
      ],
      "blue_problems": [
        "AYUGNHT"
      ],
      "blue_solution_time": 13
    },
    {
      "rt": 11943,
      "responses": "{\"Q0\":0}",
      "trial_type": "survey-likert",
      "trial_index": 7,
      "time_elapsed": 104289,
      "internal_node_id": "0.0-3.0-3.0-0.0",
      "responseType": "finish",
      "participantID": "wmrgb0cqc31ra3qhaznk5utgd5wcpvcv",
      "black_problems": [
        "AXPLINE"
      ],
      "blue_problems": [
        "AYUGNHT"
      ],
      "blue_solution_time": 13
    },
    {
      "rt": 4742,
      "stimulus": "<center><p>Now the <b>black</b> anagram will be shown to you.</p> <p>If you are not able to solve the anagram in <b>2 minutes</b>, you will be taken to the next screen.</p> <p>Press 'v' to view the anagram. </p></center>",
      "key_press": 86,
      "trial_type": "html-keyboard-response",
      "trial_index": 8,
      "time_elapsed": 109033,
      "internal_node_id": "0.0-3.1-0.1",
      "responseType": "finish",
      "participantID": "wmrgb0cqc31ra3qhaznk5utgd5wcpvcv",
      "black_problems": [
        "AXPLINE"
      ],
      "blue_problems": [
        "AYUGNHT"
      ],
      "blue_solution_time": 13
    },
    {
      "rt": 30486,
      "responses": "{\"Q0\":\"explain\"}",
      "trial_type": "survey-text",
      "trial_index": 9,
      "time_elapsed": 139521,
      "internal_node_id": "0.0-3.1-1.1",
      "responseType": "finish",
      "participantID": "wmrgb0cqc31ra3qhaznk5utgd5wcpvcv",
      "black_problems": [
        "AXPLINE"
      ],
      "blue_problems": [
        "AYUGNHT"
      ],
      "blue_solution_time": 13
    },
    {
      "rt": 4759,
      "responses": "{\"Q0\":3}",
      "trial_type": "survey-likert",
      "trial_index": 10,
      "time_elapsed": 144281,
      "internal_node_id": "0.0-3.1-3.1-0.1",
      "responseType": "finish",
      "participantID": "wmrgb0cqc31ra3qhaznk5utgd5wcpvcv",
      "black_problems": [
        "AXPLINE"
      ],
      "blue_problems": [
        "AYUGNHT"
      ],
      "blue_solution_time": 13
    }
  ],
  "__v": 0
},{
  "_id": {
    "$oid": "62b118a87cd3240004e0fb6b"
  },
  "data": [
    {
      "rt": 16371,
      "responses": "{\"Q0\":\" I consent to participate\"}",
      "trial_type": "survey-multi-choice",
      "trial_index": 0,
      "time_elapsed": 16381,
      "internal_node_id": "0.0-0.0",
      "responseType": "finish",
      "participantID": "twcqzmbrjv08nb3toyuz6hnohcdh9uar",
      "black_problems": [
        "LUBMEJD"
      ],
      "blue_problems": [
        "AYUGNHT"
      ],
      "blue_solution_time": 11
    },
    {
      "trial_type": "call-function",
      "trial_index": 1,
      "time_elapsed": 16389,
      "internal_node_id": "0.0-1.0",
      "responseType": "finish",
      "participantID": "twcqzmbrjv08nb3toyuz6hnohcdh9uar",
      "black_problems": [
        "LUBMEJD"
      ],
      "blue_problems": [
        "AYUGNHT"
      ],
      "blue_solution_time": 11
    },
    {
      "view_history": "[{\"page_index\":0,\"viewing_time\":20512},{\"page_index\":1,\"viewing_time\":21942},{\"page_index\":2,\"viewing_time\":12616}]",
      "rt": 55072,
      "trial_type": "instructions",
      "trial_index": 2,
      "time_elapsed": 71462,
      "internal_node_id": "0.0-2.0-0.0",
      "responseType": "finish",
      "participantID": "twcqzmbrjv08nb3toyuz6hnohcdh9uar",
      "black_problems": [
        "LUBMEJD"
      ],
      "blue_problems": [
        "AYUGNHT"
      ],
      "blue_solution_time": 11
    },
    {
      "rt": 21100,
      "responses": "{\"Q0\":\"The answer to the blue colored anagram will be shown after 2 minutes.\"}",
      "trial_type": "survey-multi-choice",
      "trial_index": 3,
      "time_elapsed": 92567,
      "internal_node_id": "0.0-2.0-1.0",
      "responseType": "finish",
      "participantID": "twcqzmbrjv08nb3toyuz6hnohcdh9uar",
      "black_problems": [
        "LUBMEJD"
      ],
      "blue_problems": [
        "AYUGNHT"
      ],
      "blue_solution_time": 11
    },
    {
      "rt": 7179,
      "stimulus": "<center><p>Now the <b style=\"color:#069\">blue</b> anagram will be shown to you.</p> <p>If you are not able to solve the anagram in <b>2 minutes</b>, the answer will be shown to you.</p> <p>Press 'v' to view the anagram. </p></center>",
      "key_press": 86,
      "trial_type": "html-keyboard-response",
      "trial_index": 4,
      "time_elapsed": 99750,
      "internal_node_id": "0.0-3.0-0.0",
      "responseType": "finish",
      "participantID": "twcqzmbrjv08nb3toyuz6hnohcdh9uar",
      "black_problems": [
        "LUBMEJD"
      ],
      "blue_problems": [
        "AYUGNHT"
      ],
      "blue_solution_time": 11
    },
    {
      "rt": 11002,
      "responses": "{\"Q0\":\"\"}",
      "trial_type": "survey-text",
      "trial_index": 5,
      "time_elapsed": 110754,
      "internal_node_id": "0.0-3.0-1.0",
      "responseType": "finish",
      "participantID": "twcqzmbrjv08nb3toyuz6hnohcdh9uar",
      "black_problems": [
        "LUBMEJD"
      ],
      "blue_problems": [
        "AYUGNHT"
      ],
      "blue_solution_time": 11
    },
    {
      "rt": 7809,
      "stimulus": "<center>The answer is: <h2 style=\"color:#069\"><p>NAUGHTY</p></h2><br/><br/></center>",
      "button_pressed": "0",
      "trial_type": "html-button-response",
      "trial_index": 6,
      "time_elapsed": 118566,
      "internal_node_id": "0.0-3.0-2.0-0.0",
      "responseType": "finish",
      "participantID": "twcqzmbrjv08nb3toyuz6hnohcdh9uar",
      "black_problems": [
        "LUBMEJD"
      ],
      "blue_problems": [
        "AYUGNHT"
      ],
      "blue_solution_time": 11
    },
    {
      "rt": 21268,
      "responses": "{\"Q0\":4}",
      "trial_type": "survey-likert",
      "trial_index": 7,
      "time_elapsed": 139837,
      "internal_node_id": "0.0-3.0-3.0-0.0",
      "responseType": "finish",
      "participantID": "twcqzmbrjv08nb3toyuz6hnohcdh9uar",
      "black_problems": [
        "LUBMEJD"
      ],
      "blue_problems": [
        "AYUGNHT"
      ],
      "blue_solution_time": 11
    },
    {
      "rt": 7384,
      "stimulus": "<center><p>Now the <b>black</b> anagram will be shown to you.</p> <p>If you are not able to solve the anagram in <b>2 minutes</b>, you will be taken to the next screen.</p> <p>Press 'v' to view the anagram. </p></center>",
      "key_press": 86,
      "trial_type": "html-keyboard-response",
      "trial_index": 8,
      "time_elapsed": 147239,
      "internal_node_id": "0.0-3.1-0.1",
      "responseType": "finish",
      "participantID": "twcqzmbrjv08nb3toyuz6hnohcdh9uar",
      "black_problems": [
        "LUBMEJD"
      ],
      "blue_problems": [
        "AYUGNHT"
      ],
      "blue_solution_time": 11
    },
    {
      "rt": 17727,
      "responses": "{\"Q0\":\"buljed\"}",
      "trial_type": "survey-text",
      "trial_index": 9,
      "time_elapsed": 164968,
      "internal_node_id": "0.0-3.1-1.1",
      "responseType": "finish",
      "participantID": "twcqzmbrjv08nb3toyuz6hnohcdh9uar",
      "black_problems": [
        "LUBMEJD"
      ],
      "blue_problems": [
        "AYUGNHT"
      ],
      "blue_solution_time": 11
    },
    {
      "rt": 16687,
      "responses": "{\"Q0\":3}",
      "trial_type": "survey-likert",
      "trial_index": 10,
      "time_elapsed": 181657,
      "internal_node_id": "0.0-3.1-3.1-0.1",
      "responseType": "finish",
      "participantID": "twcqzmbrjv08nb3toyuz6hnohcdh9uar",
      "black_problems": [
        "LUBMEJD"
      ],
      "blue_problems": [
        "AYUGNHT"
      ],
      "blue_solution_time": 11
    }
  ],
  "__v": 0
},{
  "_id": {
    "$oid": "62b118c17cd3240004e0fb6c"
  },
  "data": {
    "responseType": "start",
    "participantID": "40foqz3qllkjq1qyfndz0k1etdut7qy2",
    "black_problems": [
      "LUBMEJD"
    ],
    "blue_problems": [
      "AXPLINE"
    ],
    "blue_solution_time": 18
  },
  "__v": 0
},{
  "_id": {
    "$oid": "62b118c27cd3240004e0fb6d"
  },
  "data": {
    "responseType": "start",
    "participantID": "l12rwcetytowtvxdvdaayeslvvh1obwu",
    "black_problems": [
      "LUBMEJD"
    ],
    "blue_problems": [
      "AALRYS"
    ],
    "blue_solution_time": 13
  },
  "__v": 0
},{
  "_id": {
    "$oid": "62b118c47cd3240004e0fb6e"
  },
  "data": {
    "responseType": "start",
    "participantID": "9e1zobutzj9ywgz7x5ltkdgrlqywkdoo",
    "black_problems": [
      "LUBMEJD"
    ],
    "blue_problems": [
      "AYKAWLJ"
    ],
    "blue_solution_time": 10
  },
  "__v": 0
},{
  "_id": {
    "$oid": "62b118f37cd3240004e0fb6f"
  },
  "data": {
    "responseType": "start",
    "participantID": "dqka3nwj6fyatd23d6ftq8te8f2lzvgn",
    "black_problems": [
      "LUBMEJD"
    ],
    "blue_problems": [
      "AYUGNHT"
    ],
    "blue_solution_time": 16
  },
  "__v": 0
},{
  "_id": {
    "$oid": "62b118fb7cd3240004e0fb70"
  },
  "data": {
    "responseType": "start",
    "participantID": "8ru5yhl5bkrn71s1awtkp789vtcu0cwh",
    "black_problems": [
      "AALRYS"
    ],
    "blue_problems": [
      "AYUGNHT"
    ],
    "blue_solution_time": 18
  },
  "__v": 0
},{
  "_id": {
    "$oid": "62b119237cd3240004e0fb71"
  },
  "data": {
    "responseType": "start",
    "participantID": "2jpuokmm6f3x7ovy0zfbuwr9o6qw0ylo",
    "black_problems": [
      "AYKAWLJ"
    ],
    "blue_problems": [
      "AALRYS"
    ],
    "blue_solution_time": 17
  },
  "__v": 0
},{
  "_id": {
    "$oid": "62b1192a7cd3240004e0fb72"
  },
  "data": {
    "responseType": "start",
    "participantID": "ju94c38ntalphvm5p5odum726mv70syv",
    "black_problems": [
      "LUBMEJD"
    ],
    "blue_problems": [
      "AYKAWLJ"
    ],
    "blue_solution_time": 14
  },
  "__v": 0
},{
  "_id": {
    "$oid": "62b119307cd3240004e0fb73"
  },
  "data": [
    {
      "rt": 5824,
      "responses": "{\"Q0\":\" I consent to participate\"}",
      "trial_type": "survey-multi-choice",
      "trial_index": 0,
      "time_elapsed": 5886,
      "internal_node_id": "0.0-0.0",
      "responseType": "finish",
      "participantID": "9e1zobutzj9ywgz7x5ltkdgrlqywkdoo",
      "black_problems": [
        "LUBMEJD"
      ],
      "blue_problems": [
        "AYKAWLJ"
      ],
      "blue_solution_time": 10
    },
    {
      "trial_type": "call-function",
      "trial_index": 1,
      "time_elapsed": 5914,
      "internal_node_id": "0.0-1.0",
      "responseType": "finish",
      "participantID": "9e1zobutzj9ywgz7x5ltkdgrlqywkdoo",
      "black_problems": [
        "LUBMEJD"
      ],
      "blue_problems": [
        "AYKAWLJ"
      ],
      "blue_solution_time": 10
    },
    {
      "view_history": "[{\"page_index\":0,\"viewing_time\":5568},{\"page_index\":1,\"viewing_time\":7232},{\"page_index\":2,\"viewing_time\":6258}]",
      "rt": 19061,
      "trial_type": "instructions",
      "trial_index": 2,
      "time_elapsed": 24977,
      "internal_node_id": "0.0-2.0-0.0",
      "responseType": "finish",
      "participantID": "9e1zobutzj9ywgz7x5ltkdgrlqywkdoo",
      "black_problems": [
        "LUBMEJD"
      ],
      "blue_problems": [
        "AYKAWLJ"
      ],
      "blue_solution_time": 10
    },
    {
      "rt": 3496,
      "responses": "{\"Q0\":\"The answer to the blue colored anagram will be shown after 2 minutes.\"}",
      "trial_type": "survey-multi-choice",
      "trial_index": 3,
      "time_elapsed": 28483,
      "internal_node_id": "0.0-2.0-1.0",
      "responseType": "finish",
      "participantID": "9e1zobutzj9ywgz7x5ltkdgrlqywkdoo",
      "black_problems": [
        "LUBMEJD"
      ],
      "blue_problems": [
        "AYKAWLJ"
      ],
      "blue_solution_time": 10
    },
    {
      "rt": 6304,
      "stimulus": "<center><p>Now the <b style=\"color:#069\">blue</b> anagram will be shown to you.</p> <p>If you are not able to solve the anagram in <b>2 minutes</b>, the answer will be shown to you.</p> <p>Press 'v' to view the anagram. </p></center>",
      "key_press": 86,
      "trial_type": "html-keyboard-response",
      "trial_index": 4,
      "time_elapsed": 34809,
      "internal_node_id": "0.0-3.0-0.0",
      "responseType": "finish",
      "participantID": "9e1zobutzj9ywgz7x5ltkdgrlqywkdoo",
      "black_problems": [
        "LUBMEJD"
      ],
      "blue_problems": [
        "AYKAWLJ"
      ],
      "blue_solution_time": 10
    },
    {
      "rt": 10001,
      "responses": "{\"Q0\":\"jaywal\"}",
      "trial_type": "survey-text",
      "trial_index": 5,
      "time_elapsed": 44820,
      "internal_node_id": "0.0-3.0-1.0",
      "responseType": "finish",
      "participantID": "9e1zobutzj9ywgz7x5ltkdgrlqywkdoo",
      "black_problems": [
        "LUBMEJD"
      ],
      "blue_problems": [
        "AYKAWLJ"
      ],
      "blue_solution_time": 10
    },
    {
      "rt": 5039,
      "stimulus": "<center>The answer is: <h2 style=\"color:#069\"><p>JAYWALK</p></h2><br/><br/></center>",
      "button_pressed": "0",
      "trial_type": "html-button-response",
      "trial_index": 6,
      "time_elapsed": 49865,
      "internal_node_id": "0.0-3.0-2.0-0.0",
      "responseType": "finish",
      "participantID": "9e1zobutzj9ywgz7x5ltkdgrlqywkdoo",
      "black_problems": [
        "LUBMEJD"
      ],
      "blue_problems": [
        "AYKAWLJ"
      ],
      "blue_solution_time": 10
    },
    {
      "rt": 17731,
      "responses": "{\"Q0\":4}",
      "trial_type": "survey-likert",
      "trial_index": 7,
      "time_elapsed": 67601,
      "internal_node_id": "0.0-3.0-3.0-0.0",
      "responseType": "finish",
      "participantID": "9e1zobutzj9ywgz7x5ltkdgrlqywkdoo",
      "black_problems": [
        "LUBMEJD"
      ],
      "blue_problems": [
        "AYKAWLJ"
      ],
      "blue_solution_time": 10
    },
    {
      "rt": 7119,
      "stimulus": "<center><p>Now the <b>black</b> anagram will be shown to you.</p> <p>If you are not able to solve the anagram in <b>2 minutes</b>, you will be taken to the next screen.</p> <p>Press 'v' to view the anagram. </p></center>",
      "key_press": 86,
      "trial_type": "html-keyboard-response",
      "trial_index": 8,
      "time_elapsed": 74768,
      "internal_node_id": "0.0-3.1-0.1",
      "responseType": "finish",
      "participantID": "9e1zobutzj9ywgz7x5ltkdgrlqywkdoo",
      "black_problems": [
        "LUBMEJD"
      ],
      "blue_problems": [
        "AYKAWLJ"
      ],
      "blue_solution_time": 10
    },
    {
      "rt": 33135,
      "responses": "{\"Q0\":\"jumbled\"}",
      "trial_type": "survey-text",
      "trial_index": 9,
      "time_elapsed": 107906,
      "internal_node_id": "0.0-3.1-1.1",
      "responseType": "finish",
      "participantID": "9e1zobutzj9ywgz7x5ltkdgrlqywkdoo",
      "black_problems": [
        "LUBMEJD"
      ],
      "blue_problems": [
        "AYKAWLJ"
      ],
      "blue_solution_time": 10
    },
    {
      "rt": 5330,
      "responses": "{\"Q0\":5}",
      "trial_type": "survey-likert",
      "trial_index": 10,
      "time_elapsed": 113241,
      "internal_node_id": "0.0-3.1-3.1-0.1",
      "responseType": "finish",
      "participantID": "9e1zobutzj9ywgz7x5ltkdgrlqywkdoo",
      "black_problems": [
        "LUBMEJD"
      ],
      "blue_problems": [
        "AYKAWLJ"
      ],
      "blue_solution_time": 10
    }
  ],
  "__v": 0
},{
  "_id": {
    "$oid": "62b119437cd3240004e0fb74"
  },
  "data": [
    {
      "rt": 3889,
      "responses": "{\"Q0\":\" I consent to participate\"}",
      "trial_type": "survey-multi-choice",
      "trial_index": 0,
      "time_elapsed": 3892,
      "internal_node_id": "0.0-0.0",
      "responseType": "finish",
      "participantID": "40foqz3qllkjq1qyfndz0k1etdut7qy2",
      "black_problems": [
        "LUBMEJD"
      ],
      "blue_problems": [
        "AXPLINE"
      ],
      "blue_solution_time": 18
    },
    {
      "trial_type": "call-function",
      "trial_index": 1,
      "time_elapsed": 3902,
      "internal_node_id": "0.0-1.0",
      "responseType": "finish",
      "participantID": "40foqz3qllkjq1qyfndz0k1etdut7qy2",
      "black_problems": [
        "LUBMEJD"
      ],
      "blue_problems": [
        "AXPLINE"
      ],
      "blue_solution_time": 18
    },
    {
      "view_history": "[{\"page_index\":0,\"viewing_time\":8871},{\"page_index\":1,\"viewing_time\":7604},{\"page_index\":2,\"viewing_time\":8006}]",
      "rt": 24482,
      "trial_type": "instructions",
      "trial_index": 2,
      "time_elapsed": 28385,
      "internal_node_id": "0.0-2.0-0.0",
      "responseType": "finish",
      "participantID": "40foqz3qllkjq1qyfndz0k1etdut7qy2",
      "black_problems": [
        "LUBMEJD"
      ],
      "blue_problems": [
        "AXPLINE"
      ],
      "blue_solution_time": 18
    },
    {
      "rt": 15512,
      "responses": "{\"Q0\":\"The answer to the blue colored anagram will be shown after 2 minutes.\"}",
      "trial_type": "survey-multi-choice",
      "trial_index": 3,
      "time_elapsed": 43900,
      "internal_node_id": "0.0-2.0-1.0",
      "responseType": "finish",
      "participantID": "40foqz3qllkjq1qyfndz0k1etdut7qy2",
      "black_problems": [
        "LUBMEJD"
      ],
      "blue_problems": [
        "AXPLINE"
      ],
      "blue_solution_time": 18
    },
    {
      "rt": 5414,
      "stimulus": "<center><p>Now the <b>black</b> anagram will be shown to you.</p> <p>If you are not able to solve the anagram in <b>2 minutes</b>, you will be taken to the next screen.</p> <p>Press 'v' to view the anagram. </p></center>",
      "key_press": 86,
      "trial_type": "html-keyboard-response",
      "trial_index": 4,
      "time_elapsed": 49319,
      "internal_node_id": "0.0-3.0-0.0",
      "responseType": "finish",
      "participantID": "40foqz3qllkjq1qyfndz0k1etdut7qy2",
      "black_problems": [
        "LUBMEJD"
      ],
      "blue_problems": [
        "AXPLINE"
      ],
      "blue_solution_time": 18
    },
    {
      "rt": 41622,
      "responses": "{\"Q0\":\"jumbled\"}",
      "trial_type": "survey-text",
      "trial_index": 5,
      "time_elapsed": 90943,
      "internal_node_id": "0.0-3.0-1.0",
      "responseType": "finish",
      "participantID": "40foqz3qllkjq1qyfndz0k1etdut7qy2",
      "black_problems": [
        "LUBMEJD"
      ],
      "blue_problems": [
        "AXPLINE"
      ],
      "blue_solution_time": 18
    },
    {
      "rt": 13857,
      "responses": "{\"Q0\":6}",
      "trial_type": "survey-likert",
      "trial_index": 6,
      "time_elapsed": 104802,
      "internal_node_id": "0.0-3.0-3.0-0.0",
      "responseType": "finish",
      "participantID": "40foqz3qllkjq1qyfndz0k1etdut7qy2",
      "black_problems": [
        "LUBMEJD"
      ],
      "blue_problems": [
        "AXPLINE"
      ],
      "blue_solution_time": 18
    },
    {
      "rt": 1739,
      "stimulus": "<center><p>Now the <b style=\"color:#069\">blue</b> anagram will be shown to you.</p> <p>If you are not able to solve the anagram in <b>2 minutes</b>, the answer will be shown to you.</p> <p>Press 'v' to view the anagram. </p></center>",
      "key_press": 86,
      "trial_type": "html-keyboard-response",
      "trial_index": 7,
      "time_elapsed": 106550,
      "internal_node_id": "0.0-3.1-0.1",
      "responseType": "finish",
      "participantID": "40foqz3qllkjq1qyfndz0k1etdut7qy2",
      "black_problems": [
        "LUBMEJD"
      ],
      "blue_problems": [
        "AXPLINE"
      ],
      "blue_solution_time": 18
    },
    {
      "rt": 18001,
      "responses": "{\"Q0\":\"\"}",
      "trial_type": "survey-text",
      "trial_index": 8,
      "time_elapsed": 124553,
      "internal_node_id": "0.0-3.1-1.1",
      "responseType": "finish",
      "participantID": "40foqz3qllkjq1qyfndz0k1etdut7qy2",
      "black_problems": [
        "LUBMEJD"
      ],
      "blue_problems": [
        "AXPLINE"
      ],
      "blue_solution_time": 18
    },
    {
      "rt": 2627,
      "stimulus": "<center>The answer is: <h2 style=\"color:#069\"><p>EXPLAIN</p></h2><br/><br/></center>",
      "button_pressed": "0",
      "trial_type": "html-button-response",
      "trial_index": 9,
      "time_elapsed": 127184,
      "internal_node_id": "0.0-3.1-2.1-0.1",
      "responseType": "finish",
      "participantID": "40foqz3qllkjq1qyfndz0k1etdut7qy2",
      "black_problems": [
        "LUBMEJD"
      ],
      "blue_problems": [
        "AXPLINE"
      ],
      "blue_solution_time": 18
    },
    {
      "rt": 2944,
      "responses": "{\"Q0\":0}",
      "trial_type": "survey-likert",
      "trial_index": 10,
      "time_elapsed": 130129,
      "internal_node_id": "0.0-3.1-3.1-0.1",
      "responseType": "finish",
      "participantID": "40foqz3qllkjq1qyfndz0k1etdut7qy2",
      "black_problems": [
        "LUBMEJD"
      ],
      "blue_problems": [
        "AXPLINE"
      ],
      "blue_solution_time": 18
    }
  ],
  "__v": 0
},{
  "_id": {
    "$oid": "62b119487cd3240004e0fb75"
  },
  "data": [
    {
      "rt": 7036,
      "responses": "{\"Q0\":\" I consent to participate\"}",
      "trial_type": "survey-multi-choice",
      "trial_index": 0,
      "time_elapsed": 7043,
      "internal_node_id": "0.0-0.0",
      "responseType": "finish",
      "participantID": "l12rwcetytowtvxdvdaayeslvvh1obwu",
      "black_problems": [
        "LUBMEJD"
      ],
      "blue_problems": [
        "AALRYS"
      ],
      "blue_solution_time": 13
    },
    {
      "trial_type": "call-function",
      "trial_index": 1,
      "time_elapsed": 7049,
      "internal_node_id": "0.0-1.0",
      "responseType": "finish",
      "participantID": "l12rwcetytowtvxdvdaayeslvvh1obwu",
      "black_problems": [
        "LUBMEJD"
      ],
      "blue_problems": [
        "AALRYS"
      ],
      "blue_solution_time": 13
    },
    {
      "view_history": "[{\"page_index\":0,\"viewing_time\":9844},{\"page_index\":1,\"viewing_time\":9235},{\"page_index\":2,\"viewing_time\":7095}]",
      "rt": 26175,
      "trial_type": "instructions",
      "trial_index": 2,
      "time_elapsed": 33224,
      "internal_node_id": "0.0-2.0-0.0",
      "responseType": "finish",
      "participantID": "l12rwcetytowtvxdvdaayeslvvh1obwu",
      "black_problems": [
        "LUBMEJD"
      ],
      "blue_problems": [
        "AALRYS"
      ],
      "blue_solution_time": 13
    },
    {
      "rt": 16508,
      "responses": "{\"Q0\":\"The answer to the blue colored anagram will be shown after 2 minutes.\"}",
      "trial_type": "survey-multi-choice",
      "trial_index": 3,
      "time_elapsed": 49735,
      "internal_node_id": "0.0-2.0-1.0",
      "responseType": "finish",
      "participantID": "l12rwcetytowtvxdvdaayeslvvh1obwu",
      "black_problems": [
        "LUBMEJD"
      ],
      "blue_problems": [
        "AALRYS"
      ],
      "blue_solution_time": 13
    },
    {
      "rt": 5435,
      "stimulus": "<center><p>Now the <b>black</b> anagram will be shown to you.</p> <p>If you are not able to solve the anagram in <b>2 minutes</b>, you will be taken to the next screen.</p> <p>Press 'v' to view the anagram. </p></center>",
      "key_press": 86,
      "trial_type": "html-keyboard-response",
      "trial_index": 4,
      "time_elapsed": 55174,
      "internal_node_id": "0.0-3.0-0.0",
      "responseType": "finish",
      "participantID": "l12rwcetytowtvxdvdaayeslvvh1obwu",
      "black_problems": [
        "LUBMEJD"
      ],
      "blue_problems": [
        "AALRYS"
      ],
      "blue_solution_time": 13
    },
    {
      "rt": 45412,
      "responses": "{\"Q0\":\"jumbled\"}",
      "trial_type": "survey-text",
      "trial_index": 5,
      "time_elapsed": 100589,
      "internal_node_id": "0.0-3.0-1.0",
      "responseType": "finish",
      "participantID": "l12rwcetytowtvxdvdaayeslvvh1obwu",
      "black_problems": [
        "LUBMEJD"
      ],
      "blue_problems": [
        "AALRYS"
      ],
      "blue_solution_time": 13
    },
    {
      "rt": 10077,
      "responses": "{\"Q0\":5}",
      "trial_type": "survey-likert",
      "trial_index": 6,
      "time_elapsed": 110669,
      "internal_node_id": "0.0-3.0-3.0-0.0",
      "responseType": "finish",
      "participantID": "l12rwcetytowtvxdvdaayeslvvh1obwu",
      "black_problems": [
        "LUBMEJD"
      ],
      "blue_problems": [
        "AALRYS"
      ],
      "blue_solution_time": 13
    },
    {
      "rt": 3456,
      "stimulus": "<center><p>Now the <b style=\"color:#069\">blue</b> anagram will be shown to you.</p> <p>If you are not able to solve the anagram in <b>2 minutes</b>, the answer will be shown to you.</p> <p>Press 'v' to view the anagram. </p></center>",
      "key_press": 86,
      "trial_type": "html-keyboard-response",
      "trial_index": 7,
      "time_elapsed": 114129,
      "internal_node_id": "0.0-3.1-0.1",
      "responseType": "finish",
      "participantID": "l12rwcetytowtvxdvdaayeslvvh1obwu",
      "black_problems": [
        "LUBMEJD"
      ],
      "blue_problems": [
        "AALRYS"
      ],
      "blue_solution_time": 13
    },
    {
      "rt": 13008,
      "responses": "{\"Q0\":\"\"}",
      "trial_type": "survey-text",
      "trial_index": 8,
      "time_elapsed": 127139,
      "internal_node_id": "0.0-3.1-1.1",
      "responseType": "finish",
      "participantID": "l12rwcetytowtvxdvdaayeslvvh1obwu",
      "black_problems": [
        "LUBMEJD"
      ],
      "blue_problems": [
        "AALRYS"
      ],
      "blue_solution_time": 13
    },
    {
      "rt": 5526,
      "stimulus": "<center>The answer is: <h2 style=\"color:#069\"><p>SALARY</p></h2><br/><br/></center>",
      "button_pressed": "0",
      "trial_type": "html-button-response",
      "trial_index": 9,
      "time_elapsed": 132667,
      "internal_node_id": "0.0-3.1-2.1-0.1",
      "responseType": "finish",
      "participantID": "l12rwcetytowtvxdvdaayeslvvh1obwu",
      "black_problems": [
        "LUBMEJD"
      ],
      "blue_problems": [
        "AALRYS"
      ],
      "blue_solution_time": 13
    },
    {
      "rt": 7577,
      "responses": "{\"Q0\":0}",
      "trial_type": "survey-likert",
      "trial_index": 10,
      "time_elapsed": 140245,
      "internal_node_id": "0.0-3.1-3.1-0.1",
      "responseType": "finish",
      "participantID": "l12rwcetytowtvxdvdaayeslvvh1obwu",
      "black_problems": [
        "LUBMEJD"
      ],
      "blue_problems": [
        "AALRYS"
      ],
      "blue_solution_time": 13
    }
  ],
  "__v": 0
},{
  "_id": {
    "$oid": "62b1197a7cd3240004e0fb76"
  },
  "data": [
    {
      "rt": 12120,
      "responses": "{\"Q0\":\" I consent to participate\"}",
      "trial_type": "survey-multi-choice",
      "trial_index": 0,
      "time_elapsed": 12126,
      "internal_node_id": "0.0-0.0",
      "responseType": "finish",
      "participantID": "ju94c38ntalphvm5p5odum726mv70syv",
      "black_problems": [
        "LUBMEJD"
      ],
      "blue_problems": [
        "AYKAWLJ"
      ],
      "blue_solution_time": 14
    },
    {
      "trial_type": "call-function",
      "trial_index": 1,
      "time_elapsed": 12131,
      "internal_node_id": "0.0-1.0",
      "responseType": "finish",
      "participantID": "ju94c38ntalphvm5p5odum726mv70syv",
      "black_problems": [
        "LUBMEJD"
      ],
      "blue_problems": [
        "AYKAWLJ"
      ],
      "blue_solution_time": 14
    },
    {
      "view_history": "[{\"page_index\":0,\"viewing_time\":7361},{\"page_index\":1,\"viewing_time\":11558},{\"page_index\":2,\"viewing_time\":6061}]",
      "rt": 24981,
      "trial_type": "instructions",
      "trial_index": 2,
      "time_elapsed": 37112,
      "internal_node_id": "0.0-2.0-0.0",
      "responseType": "finish",
      "participantID": "ju94c38ntalphvm5p5odum726mv70syv",
      "black_problems": [
        "LUBMEJD"
      ],
      "blue_problems": [
        "AYKAWLJ"
      ],
      "blue_solution_time": 14
    },
    {
      "rt": 10037,
      "responses": "{\"Q0\":\"The answer to the blue colored anagram will be shown after 2 minutes.\"}",
      "trial_type": "survey-multi-choice",
      "trial_index": 3,
      "time_elapsed": 47152,
      "internal_node_id": "0.0-2.0-1.0",
      "responseType": "finish",
      "participantID": "ju94c38ntalphvm5p5odum726mv70syv",
      "black_problems": [
        "LUBMEJD"
      ],
      "blue_problems": [
        "AYKAWLJ"
      ],
      "blue_solution_time": 14
    },
    {
      "rt": 4353,
      "stimulus": "<center><p>Now the <b style=\"color:#069\">blue</b> anagram will be shown to you.</p> <p>If you are not able to solve the anagram in <b>2 minutes</b>, the answer will be shown to you.</p> <p>Press 'v' to view the anagram. </p></center>",
      "key_press": 86,
      "trial_type": "html-keyboard-response",
      "trial_index": 4,
      "time_elapsed": 51506,
      "internal_node_id": "0.0-3.0-0.0",
      "responseType": "finish",
      "participantID": "ju94c38ntalphvm5p5odum726mv70syv",
      "black_problems": [
        "LUBMEJD"
      ],
      "blue_problems": [
        "AYKAWLJ"
      ],
      "blue_solution_time": 14
    },
    {
      "rt": 14013,
      "responses": "{\"Q0\":\"aw\"}",
      "trial_type": "survey-text",
      "trial_index": 5,
      "time_elapsed": 65522,
      "internal_node_id": "0.0-3.0-1.0",
      "responseType": "finish",
      "participantID": "ju94c38ntalphvm5p5odum726mv70syv",
      "black_problems": [
        "LUBMEJD"
      ],
      "blue_problems": [
        "AYKAWLJ"
      ],
      "blue_solution_time": 14
    },
    {
      "rt": 5131,
      "stimulus": "<center>The answer is: <h2 style=\"color:#069\"><p>JAYWALK</p></h2><br/><br/></center>",
      "button_pressed": "0",
      "trial_type": "html-button-response",
      "trial_index": 6,
      "time_elapsed": 70656,
      "internal_node_id": "0.0-3.0-2.0-0.0",
      "responseType": "finish",
      "participantID": "ju94c38ntalphvm5p5odum726mv70syv",
      "black_problems": [
        "LUBMEJD"
      ],
      "blue_problems": [
        "AYKAWLJ"
      ],
      "blue_solution_time": 14
    },
    {
      "rt": 5721,
      "responses": "{\"Q0\":0}",
      "trial_type": "survey-likert",
      "trial_index": 7,
      "time_elapsed": 76380,
      "internal_node_id": "0.0-3.0-3.0-0.0",
      "responseType": "finish",
      "participantID": "ju94c38ntalphvm5p5odum726mv70syv",
      "black_problems": [
        "LUBMEJD"
      ],
      "blue_problems": [
        "AYKAWLJ"
      ],
      "blue_solution_time": 14
    },
    {
      "rt": 1934,
      "stimulus": "<center><p>Now the <b>black</b> anagram will be shown to you.</p> <p>If you are not able to solve the anagram in <b>2 minutes</b>, you will be taken to the next screen.</p> <p>Press 'v' to view the anagram. </p></center>",
      "key_press": 86,
      "trial_type": "html-keyboard-response",
      "trial_index": 8,
      "time_elapsed": 78315,
      "internal_node_id": "0.0-3.1-0.1",
      "responseType": "finish",
      "participantID": "ju94c38ntalphvm5p5odum726mv70syv",
      "black_problems": [
        "LUBMEJD"
      ],
      "blue_problems": [
        "AYKAWLJ"
      ],
      "blue_solution_time": 14
    },
    {
      "rt": 9079,
      "responses": "{\"Q0\":\"jumbled\"}",
      "trial_type": "survey-text",
      "trial_index": 9,
      "time_elapsed": 87395,
      "internal_node_id": "0.0-3.1-1.1",
      "responseType": "finish",
      "participantID": "ju94c38ntalphvm5p5odum726mv70syv",
      "black_problems": [
        "LUBMEJD"
      ],
      "blue_problems": [
        "AYKAWLJ"
      ],
      "blue_solution_time": 14
    },
    {
      "rt": 5520,
      "responses": "{\"Q0\":3}",
      "trial_type": "survey-likert",
      "trial_index": 10,
      "time_elapsed": 92916,
      "internal_node_id": "0.0-3.1-3.1-0.1",
      "responseType": "finish",
      "participantID": "ju94c38ntalphvm5p5odum726mv70syv",
      "black_problems": [
        "LUBMEJD"
      ],
      "blue_problems": [
        "AYKAWLJ"
      ],
      "blue_solution_time": 14
    }
  ],
  "__v": 0
},{
  "_id": {
    "$oid": "62b119877cd3240004e0fb77"
  },
  "data": {
    "responseType": "start",
    "participantID": "rxv9mtt7myql5dxb9sn6b630522lf961",
    "black_problems": [
      "AXPLINE"
    ],
    "blue_problems": [
      "AYKAWLJ"
    ],
    "blue_solution_time": 19
  },
  "__v": 0
},{
  "_id": {
    "$oid": "62b1198c7cd3240004e0fb78"
  },
  "data": [
    {
      "rt": 7842,
      "responses": "{\"Q0\":\" I consent to participate\"}",
      "trial_type": "survey-multi-choice",
      "trial_index": 0,
      "time_elapsed": 7847,
      "internal_node_id": "0.0-0.0",
      "responseType": "finish",
      "participantID": "8ru5yhl5bkrn71s1awtkp789vtcu0cwh",
      "black_problems": [
        "AALRYS"
      ],
      "blue_problems": [
        "AYUGNHT"
      ],
      "blue_solution_time": 18
    },
    {
      "trial_type": "call-function",
      "trial_index": 1,
      "time_elapsed": 7850,
      "internal_node_id": "0.0-1.0",
      "responseType": "finish",
      "participantID": "8ru5yhl5bkrn71s1awtkp789vtcu0cwh",
      "black_problems": [
        "AALRYS"
      ],
      "blue_problems": [
        "AYUGNHT"
      ],
      "blue_solution_time": 18
    },
    {
      "view_history": "[{\"page_index\":0,\"viewing_time\":14492},{\"page_index\":1,\"viewing_time\":29952},{\"page_index\":2,\"viewing_time\":9647}]",
      "rt": 54091,
      "trial_type": "instructions",
      "trial_index": 2,
      "time_elapsed": 61941,
      "internal_node_id": "0.0-2.0-0.0",
      "responseType": "finish",
      "participantID": "8ru5yhl5bkrn71s1awtkp789vtcu0cwh",
      "black_problems": [
        "AALRYS"
      ],
      "blue_problems": [
        "AYUGNHT"
      ],
      "blue_solution_time": 18
    },
    {
      "rt": 13159,
      "responses": "{\"Q0\":\"The answer to the blue colored anagram will be shown after 2 minutes.\"}",
      "trial_type": "survey-multi-choice",
      "trial_index": 3,
      "time_elapsed": 75102,
      "internal_node_id": "0.0-2.0-1.0",
      "responseType": "finish",
      "participantID": "8ru5yhl5bkrn71s1awtkp789vtcu0cwh",
      "black_problems": [
        "AALRYS"
      ],
      "blue_problems": [
        "AYUGNHT"
      ],
      "blue_solution_time": 18
    },
    {
      "rt": 5318,
      "stimulus": "<center><p>Now the <b style=\"color:#069\">blue</b> anagram will be shown to you.</p> <p>If you are not able to solve the anagram in <b>2 minutes</b>, the answer will be shown to you.</p> <p>Press 'v' to view the anagram. </p></center>",
      "key_press": 86,
      "trial_type": "html-keyboard-response",
      "trial_index": 4,
      "time_elapsed": 80422,
      "internal_node_id": "0.0-3.0-0.0",
      "responseType": "finish",
      "participantID": "8ru5yhl5bkrn71s1awtkp789vtcu0cwh",
      "black_problems": [
        "AALRYS"
      ],
      "blue_problems": [
        "AYUGNHT"
      ],
      "blue_solution_time": 18
    },
    {
      "rt": 18016,
      "responses": "{\"Q0\":\"\"}",
      "trial_type": "survey-text",
      "trial_index": 5,
      "time_elapsed": 98440,
      "internal_node_id": "0.0-3.0-1.0",
      "responseType": "finish",
      "participantID": "8ru5yhl5bkrn71s1awtkp789vtcu0cwh",
      "black_problems": [
        "AALRYS"
      ],
      "blue_problems": [
        "AYUGNHT"
      ],
      "blue_solution_time": 18
    },
    {
      "rt": 8430,
      "stimulus": "<center>The answer is: <h2 style=\"color:#069\"><p>NAUGHTY</p></h2><br/><br/></center>",
      "button_pressed": "0",
      "trial_type": "html-button-response",
      "trial_index": 6,
      "time_elapsed": 106870,
      "internal_node_id": "0.0-3.0-2.0-0.0",
      "responseType": "finish",
      "participantID": "8ru5yhl5bkrn71s1awtkp789vtcu0cwh",
      "black_problems": [
        "AALRYS"
      ],
      "blue_problems": [
        "AYUGNHT"
      ],
      "blue_solution_time": 18
    },
    {
      "rt": 9535,
      "responses": "{\"Q0\":0}",
      "trial_type": "survey-likert",
      "trial_index": 7,
      "time_elapsed": 116406,
      "internal_node_id": "0.0-3.0-3.0-0.0",
      "responseType": "finish",
      "participantID": "8ru5yhl5bkrn71s1awtkp789vtcu0cwh",
      "black_problems": [
        "AALRYS"
      ],
      "blue_problems": [
        "AYUGNHT"
      ],
      "blue_solution_time": 18
    },
    {
      "rt": 17046,
      "stimulus": "<center><p>Now the <b>black</b> anagram will be shown to you.</p> <p>If you are not able to solve the anagram in <b>2 minutes</b>, you will be taken to the next screen.</p> <p>Press 'v' to view the anagram. </p></center>",
      "key_press": 86,
      "trial_type": "html-keyboard-response",
      "trial_index": 8,
      "time_elapsed": 133454,
      "internal_node_id": "0.0-3.1-0.1",
      "responseType": "finish",
      "participantID": "8ru5yhl5bkrn71s1awtkp789vtcu0cwh",
      "black_problems": [
        "AALRYS"
      ],
      "blue_problems": [
        "AYUGNHT"
      ],
      "blue_solution_time": 18
    },
    {
      "rt": 14623,
      "responses": "{\"Q0\":\"salary\"}",
      "trial_type": "survey-text",
      "trial_index": 9,
      "time_elapsed": 148078,
      "internal_node_id": "0.0-3.1-1.1",
      "responseType": "finish",
      "participantID": "8ru5yhl5bkrn71s1awtkp789vtcu0cwh",
      "black_problems": [
        "AALRYS"
      ],
      "blue_problems": [
        "AYUGNHT"
      ],
      "blue_solution_time": 18
    },
    {
      "rt": 4671,
      "responses": "{\"Q0\":4}",
      "trial_type": "survey-likert",
      "trial_index": 10,
      "time_elapsed": 152750,
