[{
  "_id": {
    "$oid": "62abd1fc8ea66300041ff21e"
  },
  "data": {
    "responseType": "start",
    "participantID": "zdlj2zu5h90pdbo1tajrbnpupgppsbap",
    "black_problems": [
      "AALRYS"
    ],
    "blue_problems": [
      "AYKAWLJ"
    ],
    "blue_solution_time": 12
  },
  "__v": 0
},{
  "_id": {
    "$oid": "62abd26a8ea66300041ff21f"
  },
  "data": {
    "responseType": "start",
    "participantID": "qdub4y44z7xsqk81ae8y8qr1tgf7mvut",
    "black_problems": [
      "AYKAWLJ"
    ],
    "blue_problems": [
      "AYUGHNT"
    ],
    "blue_solution_time": 15
  },
  "__v": 0
},{
  "_id": {
    "$oid": "62abd2708ea66300041ff220"
  },
  "data": [
    {
      "rt": 20817,
      "responses": "{\"Q0\":\" I consent to participate\"}",
      "trial_type": "survey-multi-choice",
      "trial_index": 0,
      "time_elapsed": 20822,
      "internal_node_id": "0.0-0.0",
      "responseType": "finish",
      "participantID": "zdlj2zu5h90pdbo1tajrbnpupgppsbap",
      "black_problems": [
        "AALRYS"
      ],
      "blue_problems": [
        "AYKAWLJ"
      ],
      "blue_solution_time": 12
    },
    {
      "trial_type": "call-function",
      "trial_index": 1,
      "time_elapsed": 20831,
      "internal_node_id": "0.0-1.0",
      "responseType": "finish",
      "participantID": "zdlj2zu5h90pdbo1tajrbnpupgppsbap",
      "black_problems": [
        "AALRYS"
      ],
      "blue_problems": [
        "AYKAWLJ"
      ],
      "blue_solution_time": 12
    },
    {
      "view_history": "[{\"page_index\":0,\"viewing_time\":10286},{\"page_index\":1,\"viewing_time\":14569},{\"page_index\":2,\"viewing_time\":6077}]",
      "rt": 30933,
      "trial_type": "instructions",
      "trial_index": 2,
      "time_elapsed": 51764,
      "internal_node_id": "0.0-2.0-0.0",
      "responseType": "finish",
      "participantID": "zdlj2zu5h90pdbo1tajrbnpupgppsbap",
      "black_problems": [
        "AALRYS"
      ],
      "blue_problems": [
        "AYKAWLJ"
      ],
      "blue_solution_time": 12
    },
    {
      "rt": 15454,
      "responses": "{\"Q0\":\"The answer to the blue colored anagram will be shown after 2 minutes.\"}",
      "trial_type": "survey-multi-choice",
      "trial_index": 3,
      "time_elapsed": 67222,
      "internal_node_id": "0.0-2.0-1.0",
      "responseType": "finish",
      "participantID": "zdlj2zu5h90pdbo1tajrbnpupgppsbap",
      "black_problems": [
        "AALRYS"
      ],
      "blue_problems": [
        "AYKAWLJ"
      ],
      "blue_solution_time": 12
    },
    {
      "rt": 5912,
      "stimulus": "<center><p>Now the <b style=\"color:#069\">blue</b> anagram will be shown to you.</p> <p>If you are not able to solve the anagram in <b>2 minutes</b>, the answer will be shown to you.</p> <p>Press 'v' to view the anagram. </p></center>",
      "key_press": 86,
      "trial_type": "html-keyboard-response",
      "trial_index": 4,
      "time_elapsed": 73137,
      "internal_node_id": "0.0-3.0-0.0",
      "responseType": "finish",
      "participantID": "zdlj2zu5h90pdbo1tajrbnpupgppsbap",
      "black_problems": [
        "AALRYS"
      ],
      "blue_problems": [
        "AYKAWLJ"
      ],
      "blue_solution_time": 12
    },
    {
      "rt": 12016,
      "responses": "{\"Q0\":\"jaywalk\"}",
      "trial_type": "survey-text",
      "trial_index": 5,
      "time_elapsed": 85157,
      "internal_node_id": "0.0-3.0-1.0",
      "responseType": "finish",
      "participantID": "zdlj2zu5h90pdbo1tajrbnpupgppsbap",
      "black_problems": [
        "AALRYS"
      ],
      "blue_problems": [
        "AYKAWLJ"
      ],
      "blue_solution_time": 12
    },
    {
      "rt": 1846,
      "stimulus": "<center>The answer is: <h2 style=\"color:#069\"><p>JAYWALK</p></h2><br/><br/></center>",
      "button_pressed": "0",
      "trial_type": "html-button-response",
      "trial_index": 6,
      "time_elapsed": 87007,
      "internal_node_id": "0.0-3.0-2.0-0.0",
      "responseType": "finish",
      "participantID": "zdlj2zu5h90pdbo1tajrbnpupgppsbap",
      "black_problems": [
        "AALRYS"
      ],
      "blue_problems": [
        "AYKAWLJ"
      ],
      "blue_solution_time": 12
    },
    {
      "rt": 9121,
      "responses": "{\"Q0\":5}",
      "trial_type": "survey-likert",
      "trial_index": 7,
      "time_elapsed": 96131,
      "internal_node_id": "0.0-3.0-3.0-0.0",
      "responseType": "finish",
      "participantID": "zdlj2zu5h90pdbo1tajrbnpupgppsbap",
      "black_problems": [
        "AALRYS"
      ],
      "blue_problems": [
        "AYKAWLJ"
      ],
      "blue_solution_time": 12
    },
    {
      "rt": 3554,
      "stimulus": "<center><p>Now the <b>black</b> anagram will be shown to you.</p> <p>If you are not able to solve the anagram in <b>2 minutes</b>, you will be taken to the next screen.</p> <p>Press 'v' to view the anagram. </p></center>",
      "key_press": 86,
      "trial_type": "html-keyboard-response",
      "trial_index": 8,
      "time_elapsed": 99689,
      "internal_node_id": "0.0-3.1-0.1",
      "responseType": "finish",
      "participantID": "zdlj2zu5h90pdbo1tajrbnpupgppsbap",
      "black_problems": [
        "AALRYS"
      ],
      "blue_problems": [
        "AYKAWLJ"
      ],
      "blue_solution_time": 12
    },
    {
      "rt": 31313,
      "responses": "{\"Q0\":\"salary\"}",
      "trial_type": "survey-text",
      "trial_index": 9,
      "time_elapsed": 131004,
      "internal_node_id": "0.0-3.1-1.1",
      "responseType": "finish",
      "participantID": "zdlj2zu5h90pdbo1tajrbnpupgppsbap",
      "black_problems": [
        "AALRYS"
      ],
      "blue_problems": [
        "AYKAWLJ"
      ],
      "blue_solution_time": 12
    },
    {
      "rt": 5553,
      "responses": "{\"Q0\":3}",
      "trial_type": "survey-likert",
      "trial_index": 10,
      "time_elapsed": 136558,
      "internal_node_id": "0.0-3.1-3.1-0.1",
      "responseType": "finish",
      "participantID": "zdlj2zu5h90pdbo1tajrbnpupgppsbap",
      "black_problems": [
        "AALRYS"
      ],
      "blue_problems": [
        "AYKAWLJ"
      ],
      "blue_solution_time": 12
    }
  ],
  "__v": 0
},{
  "_id": {
    "$oid": "62abd2928ea66300041ff221"
  },
  "data": {
    "responseType": "start",
    "participantID": "4upp3rzpnzsrgqpgqxlqseprto4ja0pv",
    "black_problems": [
      "AXPLINE"
    ],
    "blue_problems": [
      "CLAIGER"
    ],
    "blue_solution_time": 17
  },
  "__v": 0
},{
  "_id": {
    "$oid": "62abd3038ea66300041ff222"
  },
  "data": [
    {
      "rt": 3900,
      "responses": "{\"Q0\":\" I consent to participate\"}",
      "trial_type": "survey-multi-choice",
      "trial_index": 0,
      "time_elapsed": 3905,
      "internal_node_id": "0.0-0.0",
      "responseType": "finish",
      "participantID": "qdub4y44z7xsqk81ae8y8qr1tgf7mvut",
      "black_problems": [
        "AYKAWLJ"
      ],
      "blue_problems": [
        "AYUGHNT"
      ],
      "blue_solution_time": 15
    },
    {
      "trial_type": "call-function",
      "trial_index": 1,
      "time_elapsed": 3907,
      "internal_node_id": "0.0-1.0",
      "responseType": "finish",
      "participantID": "qdub4y44z7xsqk81ae8y8qr1tgf7mvut",
      "black_problems": [
        "AYKAWLJ"
      ],
      "blue_problems": [
        "AYUGHNT"
      ],
      "blue_solution_time": 15
    },
    {
      "view_history": "[{\"page_index\":0,\"viewing_time\":27123},{\"page_index\":1,\"viewing_time\":19874},{\"page_index\":2,\"viewing_time\":6347}]",
      "rt": 53345,
      "trial_type": "instructions",
      "trial_index": 2,
      "time_elapsed": 57253,
      "internal_node_id": "0.0-2.0-0.0",
      "responseType": "finish",
      "participantID": "qdub4y44z7xsqk81ae8y8qr1tgf7mvut",
      "black_problems": [
        "AYKAWLJ"
      ],
      "blue_problems": [
        "AYUGHNT"
      ],
      "blue_solution_time": 15
    },
    {
      "rt": 15425,
      "responses": "{\"Q0\":\"The answer to the black colored anagram will be shown after 30 seconds.\"}",
      "trial_type": "survey-multi-choice",
      "trial_index": 3,
      "time_elapsed": 72679,
      "internal_node_id": "0.0-2.0-1.0",
      "responseType": "finish",
      "participantID": "qdub4y44z7xsqk81ae8y8qr1tgf7mvut",
      "black_problems": [
        "AYKAWLJ"
      ],
      "blue_problems": [
        "AYUGHNT"
      ],
      "blue_solution_time": 15
    },
    {
      "view_history": "[{\"page_index\":0,\"viewing_time\":6238},{\"page_index\":1,\"viewing_time\":5678},{\"page_index\":2,\"viewing_time\":5542}]",
      "rt": 17458,
      "trial_type": "instructions",
      "trial_index": 4,
      "time_elapsed": 92681,
      "internal_node_id": "0.0-2.1-0.1",
      "responseType": "finish",
      "participantID": "qdub4y44z7xsqk81ae8y8qr1tgf7mvut",
      "black_problems": [
        "AYKAWLJ"
      ],
      "blue_problems": [
        "AYUGHNT"
      ],
      "blue_solution_time": 15
    },
    {
      "rt": 2930,
      "responses": "{\"Q0\":\"The answer to the blue colored anagram will be shown after 2 minutes.\"}",
      "trial_type": "survey-multi-choice",
      "trial_index": 5,
      "time_elapsed": 95614,
      "internal_node_id": "0.0-2.1-1.1",
      "responseType": "finish",
      "participantID": "qdub4y44z7xsqk81ae8y8qr1tgf7mvut",
      "black_problems": [
        "AYKAWLJ"
      ],
      "blue_problems": [
        "AYUGHNT"
      ],
      "blue_solution_time": 15
    },
    {
      "rt": 4825,
      "stimulus": "<center><p>Now the <b>black</b> anagram will be shown to you.</p> <p>If you are not able to solve the anagram in <b>2 minutes</b>, you will be taken to the next screen.</p> <p>Press 'v' to view the anagram. </p></center>",
      "key_press": 86,
      "trial_type": "html-keyboard-response",
      "trial_index": 6,
      "time_elapsed": 100440,
      "internal_node_id": "0.0-3.0-0.0",
      "responseType": "finish",
      "participantID": "qdub4y44z7xsqk81ae8y8qr1tgf7mvut",
      "black_problems": [
        "AYKAWLJ"
      ],
      "blue_problems": [
        "AYUGHNT"
      ],
      "blue_solution_time": 15
    },
    {
      "rt": 20048,
      "responses": "{\"Q0\":\"jaywalk\"}",
      "trial_type": "survey-text",
      "trial_index": 7,
      "time_elapsed": 120490,
      "internal_node_id": "0.0-3.0-1.0",
      "responseType": "finish",
      "participantID": "qdub4y44z7xsqk81ae8y8qr1tgf7mvut",
      "black_problems": [
        "AYKAWLJ"
      ],
      "blue_problems": [
        "AYUGHNT"
      ],
      "blue_solution_time": 15
    },
    {
      "rt": 9487,
      "responses": "{\"Q0\":6}",
      "trial_type": "survey-likert",
      "trial_index": 8,
      "time_elapsed": 129978,
      "internal_node_id": "0.0-3.0-3.0-0.0",
      "responseType": "finish",
      "participantID": "qdub4y44z7xsqk81ae8y8qr1tgf7mvut",
      "black_problems": [
        "AYKAWLJ"
      ],
      "blue_problems": [
        "AYUGHNT"
      ],
      "blue_solution_time": 15
    },
    {
      "rt": 4451,
      "stimulus": "<center><p>Now the <b style=\"color:#069\">blue</b> anagram will be shown to you.</p> <p>If you are not able to solve the anagram in <b>2 minutes</b>, the answer will be shown to you.</p> <p>Press 'v' to view the anagram. </p></center>",
      "key_press": 86,
      "trial_type": "html-keyboard-response",
      "trial_index": 9,
      "time_elapsed": 134437,
      "internal_node_id": "0.0-3.1-0.1",
      "responseType": "finish",
      "participantID": "qdub4y44z7xsqk81ae8y8qr1tgf7mvut",
      "black_problems": [
        "AYKAWLJ"
      ],
      "blue_problems": [
        "AYUGHNT"
      ],
      "blue_solution_time": 15
    },
    {
      "rt": 15002,
      "responses": "{\"Q0\":\"naught\"}",
      "trial_type": "survey-text",
      "trial_index": 10,
      "time_elapsed": 149439,
      "internal_node_id": "0.0-3.1-1.1",
      "responseType": "finish",
      "participantID": "qdub4y44z7xsqk81ae8y8qr1tgf7mvut",
      "black_problems": [
        "AYKAWLJ"
      ],
      "blue_problems": [
        "AYUGHNT"
      ],
      "blue_solution_time": 15
    },
    {
      "rt": 2085,
      "stimulus": "<center>The answer is: <h2 style=\"color:#069\"><p>NAUGHTY</p></h2><br/><br/></center>",
      "button_pressed": "0",
      "trial_type": "html-button-response",
      "trial_index": 11,
      "time_elapsed": 151525,
      "internal_node_id": "0.0-3.1-2.1-0.1",
      "responseType": "finish",
      "participantID": "qdub4y44z7xsqk81ae8y8qr1tgf7mvut",
      "black_problems": [
        "AYKAWLJ"
      ],
      "blue_problems": [
        "AYUGHNT"
      ],
      "blue_solution_time": 15
    },
    {
      "rt": 5271,
      "responses": "{\"Q0\":4}",
      "trial_type": "survey-likert",
      "trial_index": 12,
      "time_elapsed": 156798,
      "internal_node_id": "0.0-3.1-3.1-0.1",
      "responseType": "finish",
      "participantID": "qdub4y44z7xsqk81ae8y8qr1tgf7mvut",
      "black_problems": [
        "AYKAWLJ"
      ],
      "blue_problems": [
        "AYUGHNT"
      ],
      "blue_solution_time": 15
    }
  ],
  "__v": 0
},{
  "_id": {
    "$oid": "62abd30e8ea66300041ff223"
  },
  "data": [
    {
      "rt": 2531,
      "responses": "{\"Q0\":\" I consent to participate\"}",
      "trial_type": "survey-multi-choice",
      "trial_index": 0,
      "time_elapsed": 2542,
      "internal_node_id": "0.0-0.0",
      "responseType": "finish",
      "participantID": "4upp3rzpnzsrgqpgqxlqseprto4ja0pv",
      "black_problems": [
        "AXPLINE"
      ],
      "blue_problems": [
        "CLAIGER"
      ],
      "blue_solution_time": 17
    },
    {
      "trial_type": "call-function",
      "trial_index": 1,
      "time_elapsed": 2543,
      "internal_node_id": "0.0-1.0",
      "responseType": "finish",
      "participantID": "4upp3rzpnzsrgqpgqxlqseprto4ja0pv",
      "black_problems": [
        "AXPLINE"
      ],
      "blue_problems": [
        "CLAIGER"
      ],
      "blue_solution_time": 17
    },
    {
      "view_history": "[{\"page_index\":0,\"viewing_time\":20868},{\"page_index\":1,\"viewing_time\":1948},{\"page_index\":0,\"viewing_time\":29834},{\"page_index\":1,\"viewing_time\":10644},{\"page_index\":2,\"viewing_time\":5494}]",
      "rt": 68788,
      "trial_type": "instructions",
      "trial_index": 2,
      "time_elapsed": 71333,
      "internal_node_id": "0.0-2.0-0.0",
      "responseType": "finish",
      "participantID": "4upp3rzpnzsrgqpgqxlqseprto4ja0pv",
      "black_problems": [
        "AXPLINE"
      ],
      "blue_problems": [
        "CLAIGER"
      ],
      "blue_solution_time": 17
    },
    {
      "rt": 9624,
      "responses": "{\"Q0\":\"The answer to the blue colored anagram will be shown after 2 minutes.\"}",
      "trial_type": "survey-multi-choice",
      "trial_index": 3,
      "time_elapsed": 80959,
      "internal_node_id": "0.0-2.0-1.0",
      "responseType": "finish",
      "participantID": "4upp3rzpnzsrgqpgqxlqseprto4ja0pv",
      "black_problems": [
        "AXPLINE"
      ],
      "blue_problems": [
        "CLAIGER"
      ],
      "blue_solution_time": 17
    },
    {
      "rt": 4142,
      "stimulus": "<center><p>Now the <b>black</b> anagram will be shown to you.</p> <p>If you are not able to solve the anagram in <b>2 minutes</b>, you will be taken to the next screen.</p> <p>Press 'v' to view the anagram. </p></center>",
      "key_press": 86,
      "trial_type": "html-keyboard-response",
      "trial_index": 4,
      "time_elapsed": 85103,
      "internal_node_id": "0.0-3.0-0.0",
      "responseType": "finish",
      "participantID": "4upp3rzpnzsrgqpgqxlqseprto4ja0pv",
      "black_problems": [
        "AXPLINE"
      ],
      "blue_problems": [
        "CLAIGER"
      ],
      "blue_solution_time": 17
    },
    {
      "rt": 14929,
      "responses": "{\"Q0\":\"explain\"}",
      "trial_type": "survey-text",
      "trial_index": 5,
      "time_elapsed": 100035,
      "internal_node_id": "0.0-3.0-1.0",
      "responseType": "finish",
      "participantID": "4upp3rzpnzsrgqpgqxlqseprto4ja0pv",
      "black_problems": [
        "AXPLINE"
      ],
      "blue_problems": [
        "CLAIGER"
      ],
      "blue_solution_time": 17
    },
    {
      "rt": 9110,
      "responses": "{\"Q0\":5}",
      "trial_type": "survey-likert",
      "trial_index": 6,
      "time_elapsed": 109147,
      "internal_node_id": "0.0-3.0-3.0-0.0",
      "responseType": "finish",
      "participantID": "4upp3rzpnzsrgqpgqxlqseprto4ja0pv",
      "black_problems": [
        "AXPLINE"
      ],
      "blue_problems": [
        "CLAIGER"
      ],
      "blue_solution_time": 17
    },
    {
      "rt": 2130,
      "stimulus": "<center><p>Now the <b style=\"color:#069\">blue</b> anagram will be shown to you.</p> <p>If you are not able to solve the anagram in <b>2 minutes</b>, the answer will be shown to you.</p> <p>Press 'v' to view the anagram. </p></center>",
      "key_press": 86,
      "trial_type": "html-keyboard-response",
      "trial_index": 7,
      "time_elapsed": 111283,
      "internal_node_id": "0.0-3.1-0.1",
      "responseType": "finish",
      "participantID": "4upp3rzpnzsrgqpgqxlqseprto4ja0pv",
      "black_problems": [
        "AXPLINE"
      ],
      "blue_problems": [
        "CLAIGER"
      ],
      "blue_solution_time": 17
    },
    {
      "rt": 10820,
      "responses": "{\"Q0\":\"glacier \"}",
      "trial_type": "survey-text",
      "trial_index": 8,
      "time_elapsed": 122103,
      "internal_node_id": "0.0-3.1-1.1",
      "responseType": "finish",
      "participantID": "4upp3rzpnzsrgqpgqxlqseprto4ja0pv",
      "black_problems": [
        "AXPLINE"
      ],
      "blue_problems": [
        "CLAIGER"
      ],
      "blue_solution_time": 17
    },
    {
      "rt": 1412,
      "stimulus": "<center>The answer is: <h2 style=\"color:#069\"><p>GLACIER</p></h2><br/><br/></center>",
      "button_pressed": "0",
      "trial_type": "html-button-response",
      "trial_index": 9,
      "time_elapsed": 123517,
      "internal_node_id": "0.0-3.1-2.1-0.1",
      "responseType": "finish",
      "participantID": "4upp3rzpnzsrgqpgqxlqseprto4ja0pv",
      "black_problems": [
        "AXPLINE"
      ],
      "blue_problems": [
        "CLAIGER"
      ],
      "blue_solution_time": 17
    },
    {
      "rt": 2145,
      "responses": "{\"Q0\":6}",
      "trial_type": "survey-likert",
      "trial_index": 10,
      "time_elapsed": 125662,
      "internal_node_id": "0.0-3.1-3.1-0.1",
      "responseType": "finish",
      "participantID": "4upp3rzpnzsrgqpgqxlqseprto4ja0pv",
      "black_problems": [
        "AXPLINE"
      ],
      "blue_problems": [
        "CLAIGER"
      ],
      "blue_solution_time": 17
    }
  ],
  "__v": 0
},{
  "_id": {
    "$oid": "62abd39a8ea66300041ff224"
  },
  "data": {
    "responseType": "start",
    "participantID": "0fb59nzcmaclaktcr1tkxa7unk3m9fxd",
    "black_problems": [
      "AYKAWLJ"
    ],
    "blue_problems": [
      "LUBMEJD"
    ],
    "blue_solution_time": 14
  },
  "__v": 0
},{
  "_id": {
    "$oid": "62abd3a88ea66300041ff225"
  },
  "data": {
    "responseType": "start",
    "participantID": "vrqexl6j2h02ysg753umwga8r9fxgltw",
    "black_problems": [
      "AXPLINE"
    ],
    "blue_problems": [
      "CLAIGER"
    ],
    "blue_solution_time": 19
  },
  "__v": 0
},{
  "_id": {
    "$oid": "62abd3dc8ea66300041ff226"
  },
  "data": {
    "responseType": "start",
    "participantID": "7gc179v2ctdck85nw00gheulrlqstx6n",
    "black_problems": [
      "AYKAWLJ"
    ],
    "blue_problems": [
      "LUBMEJD"
    ],
    "blue_solution_time": 10
  },
  "__v": 0
},{
  "_id": {
    "$oid": "62abd3f18ea66300041ff227"
  },
  "data": {
    "responseType": "start",
    "participantID": "xmq5m33s4zn2c0pmvgxkw8bv3c451n41",
    "black_problems": [
      "AYKAWLJ"
    ],
    "blue_problems": [
      "CLAIGER"
    ],
    "blue_solution_time": 18
  },
  "__v": 0
},{
  "_id": {
    "$oid": "62abd3f38ea66300041ff228"
  },
  "data": {
    "responseType": "start",
    "participantID": "z0xtonqvh0ryoeovo8m4oao2h1bupq93",
    "black_problems": [
      "AXPLINE"
    ],
    "blue_problems": [
      "CLAIGER"
    ],
    "blue_solution_time": 14
  },
  "__v": 0
},{
  "_id": {
    "$oid": "62abd40e8ea66300041ff229"
  },
  "data": {
    "responseType": "start",
    "participantID": "qeavex1stpe9rvrzd62vlwqno6yqo9et",
    "black_problems": [
      "AXPLINE"
    ],
    "blue_problems": [
      "AALRYS"
    ],
    "blue_solution_time": 10
  },
  "__v": 0
},{
  "_id": {
    "$oid": "62abd4218ea66300041ff22a"
  },
  "data": {
    "responseType": "start",
    "participantID": "mv2tavnsmxhn7npmnykejy97kynvp6ch",
    "black_problems": [
      "AYUGHNT"
    ],
    "blue_problems": [
      "CLAIGER"
    ],
    "blue_solution_time": 11
  },
  "__v": 0
},{
  "_id": {
    "$oid": "62abd4258ea66300041ff22b"
  },
  "data": {
    "responseType": "start",
    "participantID": "4z1moyalp76gkm00whzlw7x0xbdp42l4",
    "black_problems": [
      "AYUGHNT"
    ],
    "blue_problems": [
      "AYKAWLJ"
    ],
    "blue_solution_time": 16
  },
  "__v": 0
},{
  "_id": {
    "$oid": "62abd42d8ea66300041ff22c"
  },
  "data": {
    "responseType": "start",
    "participantID": "nhw1l6919osqfqscjpzjwm3d4031mvg2",
    "black_problems": [
      "AALRYS"
    ],
    "blue_problems": [
      "LUBMEJD"
    ],
    "blue_solution_time": 20
  },
  "__v": 0
},{
  "_id": {
    "$oid": "62abd4368ea66300041ff22d"
  },
  "data": {
    "responseType": "start",
    "participantID": "32mm9hjoqyfpkw0l5dyvxulpszq2h7xh",
    "black_problems": [
      "AXPLINE"
    ],
    "blue_problems": [
      "AYKAWLJ"
    ],
    "blue_solution_time": 14
  },
  "__v": 0
},{
  "_id": {
    "$oid": "62abd4378ea66300041ff22e"
  },
  "data": [
    {
      "rt": 17664,
      "responses": "{\"Q0\":\" I consent to participate\"}",
      "trial_type": "survey-multi-choice",
      "trial_index": 0,
      "time_elapsed": 17670,
      "internal_node_id": "0.0-0.0",
      "responseType": "finish",
      "participantID": "vrqexl6j2h02ysg753umwga8r9fxgltw",
      "black_problems": [
        "AXPLINE"
      ],
      "blue_problems": [
        "CLAIGER"
      ],
      "blue_solution_time": 19
    },
    {
      "trial_type": "call-function",
      "trial_index": 1,
      "time_elapsed": 17674,
      "internal_node_id": "0.0-1.0",
      "responseType": "finish",
      "participantID": "vrqexl6j2h02ysg753umwga8r9fxgltw",
      "black_problems": [
        "AXPLINE"
      ],
      "blue_problems": [
        "CLAIGER"
      ],
      "blue_solution_time": 19
    },
    {
      "view_history": "[{\"page_index\":0,\"viewing_time\":10205},{\"page_index\":1,\"viewing_time\":24419},{\"page_index\":2,\"viewing_time\":7052}]",
      "rt": 41677,
      "trial_type": "instructions",
      "trial_index": 2,
      "time_elapsed": 59351,
      "internal_node_id": "0.0-2.0-0.0",
      "responseType": "finish",
      "participantID": "vrqexl6j2h02ysg753umwga8r9fxgltw",
      "black_problems": [
        "AXPLINE"
      ],
      "blue_problems": [
        "CLAIGER"
      ],
      "blue_solution_time": 19
    },
    {
      "rt": 14946,
      "responses": "{\"Q0\":\"The answer to the blue colored anagram will be shown after 2 minutes.\"}",
      "trial_type": "survey-multi-choice",
      "trial_index": 3,
      "time_elapsed": 74299,
      "internal_node_id": "0.0-2.0-1.0",
      "responseType": "finish",
      "participantID": "vrqexl6j2h02ysg753umwga8r9fxgltw",
      "black_problems": [
        "AXPLINE"
      ],
      "blue_problems": [
        "CLAIGER"
      ],
      "blue_solution_time": 19
    },
    {
      "rt": 5468,
      "stimulus": "<center><p>Now the <b>black</b> anagram will be shown to you.</p> <p>If you are not able to solve the anagram in <b>2 minutes</b>, you will be taken to the next screen.</p> <p>Press 'v' to view the anagram. </p></center>",
      "key_press": 86,
      "trial_type": "html-keyboard-response",
      "trial_index": 4,
      "time_elapsed": 79768,
      "internal_node_id": "0.0-3.0-0.0",
      "responseType": "finish",
      "participantID": "vrqexl6j2h02ysg753umwga8r9fxgltw",
      "black_problems": [
        "AXPLINE"
      ],
      "blue_problems": [
        "CLAIGER"
      ],
      "blue_solution_time": 19
    },
    {
      "rt": 36087,
      "responses": "{\"Q0\":\"EXPLAIN\"}",
      "trial_type": "survey-text",
      "trial_index": 5,
      "time_elapsed": 115857,
      "internal_node_id": "0.0-3.0-1.0",
      "responseType": "finish",
      "participantID": "vrqexl6j2h02ysg753umwga8r9fxgltw",
      "black_problems": [
        "AXPLINE"
      ],
      "blue_problems": [
        "CLAIGER"
      ],
      "blue_solution_time": 19
    },
    {
      "rt": 9416,
      "responses": "{\"Q0\":6}",
      "trial_type": "survey-likert",
      "trial_index": 6,
      "time_elapsed": 125276,
      "internal_node_id": "0.0-3.0-3.0-0.0",
      "responseType": "finish",
      "participantID": "vrqexl6j2h02ysg753umwga8r9fxgltw",
      "black_problems": [
        "AXPLINE"
      ],
      "blue_problems": [
        "CLAIGER"
      ],
      "blue_solution_time": 19
    },
    {
      "rt": 3381,
      "stimulus": "<center><p>Now the <b style=\"color:#069\">blue</b> anagram will be shown to you.</p> <p>If you are not able to solve the anagram in <b>2 minutes</b>, the answer will be shown to you.</p> <p>Press 'v' to view the anagram. </p></center>",
      "key_press": 86,
      "trial_type": "html-keyboard-response",
      "trial_index": 7,
      "time_elapsed": 128669,
      "internal_node_id": "0.0-3.1-0.1",
      "responseType": "finish",
      "participantID": "vrqexl6j2h02ysg753umwga8r9fxgltw",
      "black_problems": [
        "AXPLINE"
      ],
      "blue_problems": [
        "CLAIGER"
      ],
      "blue_solution_time": 19
    },
    {
      "rt": 19001,
      "responses": "{\"Q0\":\"GLACIER\"}",
      "trial_type": "survey-text",
      "trial_index": 8,
      "time_elapsed": 147671,
      "internal_node_id": "0.0-3.1-1.1",
      "responseType": "finish",
      "participantID": "vrqexl6j2h02ysg753umwga8r9fxgltw",
      "black_problems": [
        "AXPLINE"
      ],
      "blue_problems": [
        "CLAIGER"
      ],
      "blue_solution_time": 19
    },
    {
      "rt": 1593,
      "stimulus": "<center>The answer is: <h2 style=\"color:#069\"><p>GLACIER</p></h2><br/><br/></center>",
      "button_pressed": "0",
      "trial_type": "html-button-response",
      "trial_index": 9,
      "time_elapsed": 149265,
      "internal_node_id": "0.0-3.1-2.1-0.1",
      "responseType": "finish",
      "participantID": "vrqexl6j2h02ysg753umwga8r9fxgltw",
      "black_problems": [
        "AXPLINE"
      ],
      "blue_problems": [
        "CLAIGER"
      ],
      "blue_solution_time": 19
    },
    {
      "rt": 10828,
      "responses": "{\"Q0\":5}",
      "trial_type": "survey-likert",
      "trial_index": 10,
      "time_elapsed": 160095,
      "internal_node_id": "0.0-3.1-3.1-0.1",
      "responseType": "finish",
      "participantID": "vrqexl6j2h02ysg753umwga8r9fxgltw",
      "black_problems": [
        "AXPLINE"
      ],
      "blue_problems": [
        "CLAIGER"
      ],
      "blue_solution_time": 19
    }
  ],
  "__v": 0
},{
  "_id": {
    "$oid": "62abd43e8ea66300041ff22f"
  },
  "data": {
    "responseType": "start",
    "participantID": "1he4s0zzd8qr09slvhls0tg4kdk3t5b0",
    "black_problems": [
      "LUBMEJD"
    ],
    "blue_problems": [
      "AALRYS"
    ],
    "blue_solution_time": 17
  },
  "__v": 0
},{
  "_id": {
    "$oid": "62abd4588ea66300041ff230"
  },
  "data": {
    "responseType": "start",
    "participantID": "hgea5ajtcxfpm35r444q9m39djoo01yo",
    "black_problems": [
      "AXPLINE"
    ],
    "blue_problems": [
      "AYKAWLJ"
    ],
    "blue_solution_time": 12
  },
  "__v": 0
},{
  "_id": {
    "$oid": "62abd4608ea66300041ff231"
  },
  "data": {
    "responseType": "start",
    "participantID": "8t1l81yeree7q458a2loqmz9tddgtj86",
    "black_problems": [
      "CLAIGER"
    ],
    "blue_problems": [
      "AYUGHNT"
    ],
    "blue_solution_time": 11
  },
  "__v": 0
},{
  "_id": {
    "$oid": "62abd4618ea66300041ff232"
  },
  "data": {
    "responseType": "start",
    "participantID": "c8hv554bgnqkxx8yoomy5am9jpk90y9y",
    "black_problems": [
      "AXPLINE"
    ],
    "blue_problems": [
      "AYUGHNT"
    ],
    "blue_solution_time": 14
  },
  "__v": 0
},{
  "_id": {
    "$oid": "62abd4668ea66300041ff233"
  },
  "data": {
    "responseType": "start",
    "participantID": "q2acbs1rjh3rg62mcju599hb6eb24lfg",
    "black_problems": [
      "CLAIGER"
    ],
    "blue_problems": [
      "AYKAWLJ"
    ],
    "blue_solution_time": 15
  },
  "__v": 0
},{
  "_id": {
    "$oid": "62abd4688ea66300041ff234"
  },
  "data": {
    "responseType": "start",
    "participantID": "80fpu15lnpwvgn635oat6403cp7b2w18",
    "black_problems": [
      "AALRYS"
    ],
    "blue_problems": [
      "AYUGHNT"
    ],
    "blue_solution_time": 18
  },
  "__v": 0
},{
  "_id": {
    "$oid": "62abd46c8ea66300041ff235"
  },
  "data": {
    "responseType": "start",
    "participantID": "6h1afq4t6xbnvccglckwvxgfjk7s679u",
    "black_problems": [
      "CLAIGER"
    ],
    "blue_problems": [
      "AYUGHNT"
    ],
    "blue_solution_time": 14
  },
  "__v": 0
},{
  "_id": {
    "$oid": "62abd46c8ea66300041ff236"
  },
  "data": {
    "responseType": "start",
    "participantID": "pwyqsdyw8vwgj41f7wd742ybl1k31313",
    "black_problems": [
      "CLAIGER"
    ],
    "blue_problems": [
      "AYUGHNT"
    ],
    "blue_solution_time": 11
  },
  "__v": 0
},{
  "_id": {
    "$oid": "62abd4708ea66300041ff237"
  },
  "data": {
    "responseType": "start",
    "participantID": "sa8n4n7pgghhr1nuwrqwd0hgzafzr2sm",
    "black_problems": [
      "AXPLINE"
    ],
    "blue_problems": [
      "AYKAWLJ"
    ],
    "blue_solution_time": 20
  },
  "__v": 0
},{
  "_id": {
    "$oid": "62abd4758ea66300041ff238"
  },
  "data": {
    "responseType": "start",
    "participantID": "b0zhjnym4nfem7xczjjch4lclpdp40kw",
    "black_problems": [
      "CLAIGER"
    ],
    "blue_problems": [
      "AXPLINE"
    ],
    "blue_solution_time": 16
  },
  "__v": 0
},{
  "_id": {
    "$oid": "62abd47c8ea66300041ff239"
  },
  "data": {
    "responseType": "start",
    "participantID": "4h7x8eq7jo9yj16ue6zqku2v5tvlpnsd",
    "black_problems": [
      "AXPLINE"
    ],
    "blue_problems": [
      "AALRYS"
    ],
    "blue_solution_time": 11
  },
  "__v": 0
},{
  "_id": {
    "$oid": "62abd4808ea66300041ff23a"
  },
  "data": {
    "responseType": "start",
    "participantID": "lytrn7fcf03ss0upfoxxq3pqyhxsmmxp",
    "black_problems": [
      "AYUGHNT"
    ],
    "blue_problems": [
      "AXPLINE"
    ],
    "blue_solution_time": 11
  },
  "__v": 0
},{
  "_id": {
    "$oid": "62abd4838ea66300041ff23b"
  },
  "data": {
    "responseType": "start",
    "participantID": "00c93x76aamokfpy47ujb7xlbenaa0oy",
    "black_problems": [
      "AYKAWLJ"
    ],
    "blue_problems": [
      "AYUGHNT"
    ],
    "blue_solution_time": 20
  },
  "__v": 0
},{
  "_id": {
    "$oid": "62abd4848ea66300041ff23c"
  },
  "data": {
    "responseType": "start",
    "participantID": "72wsbyxfkmr0so5er1cbj4u53cmuo1qg",
    "black_problems": [
      "AALRYS"
    ],
    "blue_problems": [
      "LUBMEJD"
    ],
    "blue_solution_time": 11
  },
  "__v": 0
},{
  "_id": {
    "$oid": "62abd4878ea66300041ff23d"
  },
  "data": [
    {
      "rt": 3798,
      "responses": "{\"Q0\":\" I consent to participate\"}",
      "trial_type": "survey-multi-choice",
      "trial_index": 0,
      "time_elapsed": 3803,
      "internal_node_id": "0.0-0.0",
      "responseType": "finish",
      "participantID": "xmq5m33s4zn2c0pmvgxkw8bv3c451n41",
      "black_problems": [
        "AYKAWLJ"
      ],
      "blue_problems": [
        "CLAIGER"
      ],
      "blue_solution_time": 18
    },
    {
      "trial_type": "call-function",
      "trial_index": 1,
      "time_elapsed": 3807,
      "internal_node_id": "0.0-1.0",
      "responseType": "finish",
      "participantID": "xmq5m33s4zn2c0pmvgxkw8bv3c451n41",
      "black_problems": [
        "AYKAWLJ"
      ],
      "blue_problems": [
        "CLAIGER"
      ],
      "blue_solution_time": 18
    },
    {
      "view_history": "[{\"page_index\":0,\"viewing_time\":11530},{\"page_index\":1,\"viewing_time\":11078},{\"page_index\":2,\"viewing_time\":5441}]",
      "rt": 28049,
      "trial_type": "instructions",
      "trial_index": 2,
      "time_elapsed": 31856,
      "internal_node_id": "0.0-2.0-0.0",
      "responseType": "finish",
      "participantID": "xmq5m33s4zn2c0pmvgxkw8bv3c451n41",
      "black_problems": [
        "AYKAWLJ"
      ],
      "blue_problems": [
        "CLAIGER"
      ],
      "blue_solution_time": 18
    },
    {
      "rt": 11027,
      "responses": "{\"Q0\":\"The answer to the blue colored anagram will be shown after 2 minutes.\"}",
      "trial_type": "survey-multi-choice",
      "trial_index": 3,
      "time_elapsed": 42884,
      "internal_node_id": "0.0-2.0-1.0",
      "responseType": "finish",
      "participantID": "xmq5m33s4zn2c0pmvgxkw8bv3c451n41",
      "black_problems": [
        "AYKAWLJ"
      ],
      "blue_problems": [
        "CLAIGER"
      ],
      "blue_solution_time": 18
    },
    {
      "rt": 4976,
      "stimulus": "<center><p>Now the <b>black</b> anagram will be shown to you.</p> <p>If you are not able to solve the anagram in <b>2 minutes</b>, you will be taken to the next screen.</p> <p>Press 'v' to view the anagram. </p></center>",
      "key_press": 86,
      "trial_type": "html-keyboard-response",
      "trial_index": 4,
      "time_elapsed": 47862,
      "internal_node_id": "0.0-3.0-0.0",
      "responseType": "finish",
      "participantID": "xmq5m33s4zn2c0pmvgxkw8bv3c451n41",
      "black_problems": [
        "AYKAWLJ"
      ],
      "blue_problems": [
        "CLAIGER"
      ],
      "blue_solution_time": 18
    },
    {
      "rt": 66965,
      "responses": "{\"Q0\":\"Jaywalk\"}",
      "trial_type": "survey-text",
      "trial_index": 5,
      "time_elapsed": 114830,
      "internal_node_id": "0.0-3.0-1.0",
      "responseType": "finish",
      "participantID": "xmq5m33s4zn2c0pmvgxkw8bv3c451n41",
      "black_problems": [
        "AYKAWLJ"
      ],
      "blue_problems": [
        "CLAIGER"
      ],
      "blue_solution_time": 18
    },
    {
      "rt": 8237,
      "responses": "{\"Q0\":6}",
      "trial_type": "survey-likert",
      "trial_index": 6,
      "time_elapsed": 123067,
      "internal_node_id": "0.0-3.0-3.0-0.0",
      "responseType": "finish",
      "participantID": "xmq5m33s4zn2c0pmvgxkw8bv3c451n41",
      "black_problems": [
        "AYKAWLJ"
      ],
      "blue_problems": [
        "CLAIGER"
      ],
      "blue_solution_time": 18
    },
    {
      "rt": 2175,
      "stimulus": "<center><p>Now the <b style=\"color:#069\">blue</b> anagram will be shown to you.</p> <p>If you are not able to solve the anagram in <b>2 minutes</b>, the answer will be shown to you.</p> <p>Press 'v' to view the anagram. </p></center>",
      "key_press": 86,
      "trial_type": "html-keyboard-response",
      "trial_index": 7,
      "time_elapsed": 125251,
      "internal_node_id": "0.0-3.1-0.1",
      "responseType": "finish",
      "participantID": "xmq5m33s4zn2c0pmvgxkw8bv3c451n41",
      "black_problems": [
        "AYKAWLJ"
      ],
      "blue_problems": [
        "CLAIGER"
      ],
      "blue_solution_time": 18
    },
    {
      "rt": 18004,
      "responses": "{\"Q0\":\"\"}",
      "trial_type": "survey-text",
      "trial_index": 8,
      "time_elapsed": 143256,
      "internal_node_id": "0.0-3.1-1.1",
      "responseType": "finish",
      "participantID": "xmq5m33s4zn2c0pmvgxkw8bv3c451n41",
      "black_problems": [
        "AYKAWLJ"
      ],
      "blue_problems": [
        "CLAIGER"
      ],
      "blue_solution_time": 18
    },
    {
      "rt": 3501,
      "stimulus": "<center>The answer is: <h2 style=\"color:#069\"><p>GLACIER</p></h2><br/><br/></center>",
      "button_pressed": "0",
      "trial_type": "html-button-response",
      "trial_index": 9,
      "time_elapsed": 146757,
      "internal_node_id": "0.0-3.1-2.1-0.1",
      "responseType": "finish",
      "participantID": "xmq5m33s4zn2c0pmvgxkw8bv3c451n41",
      "black_problems": [
        "AYKAWLJ"
      ],
      "blue_problems": [
        "CLAIGER"
      ],
      "blue_solution_time": 18
    },
    {
      "rt": 7275,
      "responses": "{\"Q0\":0}",
      "trial_type": "survey-likert",
      "trial_index": 10,
      "time_elapsed": 154032,
      "internal_node_id": "0.0-3.1-3.1-0.1",
      "responseType": "finish",
      "participantID": "xmq5m33s4zn2c0pmvgxkw8bv3c451n41",
      "black_problems": [
        "AYKAWLJ"
      ],
      "blue_problems": [
        "CLAIGER"
      ],
      "blue_solution_time": 18
    }
  ],
  "__v": 0
},{
  "_id": {
    "$oid": "62abd4878ea66300041ff23e"
  },
  "data": {
    "responseType": "start",
    "participantID": "m8v38cu28d4h9cqejkjn3cu8qy36tanu",
    "black_problems": [
      "AYKAWLJ"
    ],
    "blue_problems": [
      "LUBMEJD"
    ],
    "blue_solution_time": 10
  },
  "__v": 0
},{
  "_id": {
    "$oid": "62abd48e8ea66300041ff23f"
  },
  "data": {
    "responseType": "start",
    "participantID": "799hhjwn99hnluasr64gpkk9dmo6qkhg",
    "black_problems": [
      "CLAIGER"
    ],
    "blue_problems": [
      "AYKAWLJ"
    ],
    "blue_solution_time": 18
  },
  "__v": 0
},{
  "_id": {
    "$oid": "62abd4938ea66300041ff240"
  },
  "data": {
    "responseType": "start",
    "participantID": "1agh0tbj7wdhee1z2huz0vwj331a91tv",
    "black_problems": [
      "AXPLINE"
    ],
    "blue_problems": [
      "LUBMEJD"
    ],
    "blue_solution_time": 17
  },
  "__v": 0
},{
  "_id": {
    "$oid": "62abd49a8ea66300041ff241"
  },
  "data": [
    {
      "rt": 18259,
      "responses": "{\"Q0\":\" I consent to participate\"}",
      "trial_type": "survey-multi-choice",
      "trial_index": 0,
      "time_elapsed": 18267,
      "internal_node_id": "0.0-0.0",
      "responseType": "finish",
      "participantID": "mv2tavnsmxhn7npmnykejy97kynvp6ch",
      "black_problems": [
        "AYUGHNT"
      ],
      "blue_problems": [
        "CLAIGER"
      ],
      "blue_solution_time": 11
    },
    {
      "trial_type": "call-function",
      "trial_index": 1,
      "time_elapsed": 18268,
      "internal_node_id": "0.0-1.0",
      "responseType": "finish",
      "participantID": "mv2tavnsmxhn7npmnykejy97kynvp6ch",
      "black_problems": [
        "AYUGHNT"
      ],
      "blue_problems": [
        "CLAIGER"
      ],
      "blue_solution_time": 11
    },
    {
      "view_history": "[{\"page_index\":0,\"viewing_time\":12967},{\"page_index\":1,\"viewing_time\":20970},{\"page_index\":2,\"viewing_time\":6377}]",
      "rt": 40314,
      "trial_type": "instructions",
      "trial_index": 2,
      "time_elapsed": 58583,
      "internal_node_id": "0.0-2.0-0.0",
      "responseType": "finish",
      "participantID": "mv2tavnsmxhn7npmnykejy97kynvp6ch",
      "black_problems": [
        "AYUGHNT"
      ],
      "blue_problems": [
        "CLAIGER"
      ],
      "blue_solution_time": 11
    },
    {
      "rt": 15282,
      "responses": "{\"Q0\":\"The answer to the blue colored anagram will be shown after 2 minutes.\"}",
      "trial_type": "survey-multi-choice",
      "trial_index": 3,
      "time_elapsed": 73868,
      "internal_node_id": "0.0-2.0-1.0",
      "responseType": "finish",
      "participantID": "mv2tavnsmxhn7npmnykejy97kynvp6ch",
      "black_problems": [
        "AYUGHNT"
      ],
      "blue_problems": [
        "CLAIGER"
      ],
      "blue_solution_time": 11
    },
    {
      "rt": 7487,
      "stimulus": "<center><p>Now the <b style=\"color:#069\">blue</b> anagram will be shown to you.</p> <p>If you are not able to solve the anagram in <b>2 minutes</b>, the answer will be shown to you.</p> <p>Press 'v' to view the anagram. </p></center>",
      "key_press": 86,
      "trial_type": "html-keyboard-response",
      "trial_index": 4,
      "time_elapsed": 81355,
      "internal_node_id": "0.0-3.0-0.0",
      "responseType": "finish",
      "participantID": "mv2tavnsmxhn7npmnykejy97kynvp6ch",
      "black_problems": [
        "AYUGHNT"
      ],
      "blue_problems": [
        "CLAIGER"
      ],
      "blue_solution_time": 11
    },
    {
      "rt": 11008,
      "responses": "{\"Q0\":\"R\"}",
      "trial_type": "survey-text",
      "trial_index": 5,
      "time_elapsed": 92364,
      "internal_node_id": "0.0-3.0-1.0",
      "responseType": "finish",
      "participantID": "mv2tavnsmxhn7npmnykejy97kynvp6ch",
      "black_problems": [
        "AYUGHNT"
      ],
      "blue_problems": [
        "CLAIGER"
      ],
      "blue_solution_time": 11
    },
    {
      "rt": 6455,
      "stimulus": "<center>The answer is: <h2 style=\"color:#069\"><p>GLACIER</p></h2><br/><br/></center>",
      "button_pressed": "0",
      "trial_type": "html-button-response",
      "trial_index": 6,
      "time_elapsed": 98821,
      "internal_node_id": "0.0-3.0-2.0-0.0",
      "responseType": "finish",
      "participantID": "mv2tavnsmxhn7npmnykejy97kynvp6ch",
      "black_problems": [
        "AYUGHNT"
      ],
      "blue_problems": [
        "CLAIGER"
      ],
      "blue_solution_time": 11
    },
    {
      "rt": 9817,
      "responses": "{\"Q0\":0}",
      "trial_type": "survey-likert",
      "trial_index": 7,
      "time_elapsed": 108639,
      "internal_node_id": "0.0-3.0-3.0-0.0",
      "responseType": "finish",
      "participantID": "mv2tavnsmxhn7npmnykejy97kynvp6ch",
      "black_problems": [
        "AYUGHNT"
      ],
      "blue_problems": [
        "CLAIGER"
      ],
      "blue_solution_time": 11
    },
    {
      "rt": 3573,
      "stimulus": "<center><p>Now the <b>black</b> anagram will be shown to you.</p> <p>If you are not able to solve the anagram in <b>2 minutes</b>, you will be taken to the next screen.</p> <p>Press 'v' to view the anagram. </p></center>",
      "key_press": 86,
      "trial_type": "html-keyboard-response",
      "trial_index": 8,
      "time_elapsed": 112215,
      "internal_node_id": "0.0-3.1-0.1",
      "responseType": "finish",
      "participantID": "mv2tavnsmxhn7npmnykejy97kynvp6ch",
      "black_problems": [
        "AYUGHNT"
      ],
      "blue_problems": [
        "CLAIGER"
      ],
      "blue_solution_time": 11
    },
    {
      "rt": 14993,
      "responses": "{\"Q0\":\"NAUGHTY\"}",
      "trial_type": "survey-text",
      "trial_index": 9,
      "time_elapsed": 127209,
      "internal_node_id": "0.0-3.1-1.1",
      "responseType": "finish",
      "participantID": "mv2tavnsmxhn7npmnykejy97kynvp6ch",
      "black_problems": [
        "AYUGHNT"
      ],
      "blue_problems": [
        "CLAIGER"
      ],
      "blue_solution_time": 11
    },
    {
      "rt": 11641,
      "responses": "{\"Q0\":6}",
      "trial_type": "survey-likert",
      "trial_index": 10,
      "time_elapsed": 138851,
      "internal_node_id": "0.0-3.1-3.1-0.1",
      "responseType": "finish",
      "participantID": "mv2tavnsmxhn7npmnykejy97kynvp6ch",
      "black_problems": [
        "AYUGHNT"
      ],
      "blue_problems": [
        "CLAIGER"
      ],
      "blue_solution_time": 11
    }
  ],
  "__v": 0
},{
  "_id": {
    "$oid": "62abd49b8ea66300041ff242"
  },
  "data": {
    "responseType": "start",
    "participantID": "q2edsssbkgdpkbk1hf5psh2zgtvdcmno",
    "black_problems": [
      "LUBMEJD"
    ],
    "blue_problems": [
      "CLAIGER"
    ],
    "blue_solution_time": 17
  },
  "__v": 0
},{
  "_id": {
    "$oid": "62abd49e8ea66300041ff243"
  },
  "data": {
    "responseType": "start",
    "participantID": "qg6nmcpf85t6nxs3xxhsm6zwcy93gn3w",
    "black_problems": [
      "AYUGHNT"
    ],
    "blue_problems": [
      "AYKAWLJ"
    ],
    "blue_solution_time": 13
  },
  "__v": 0
},{
  "_id": {
    "$oid": "62abd4a08ea66300041ff244"
  },
  "data": [
    {
      "rt": 5287,
      "responses": "{\"Q0\":\" I consent to participate\"}",
      "trial_type": "survey-multi-choice",
      "trial_index": 0,
      "time_elapsed": 5296,
      "internal_node_id": "0.0-0.0",
      "responseType": "finish",
      "participantID": "nhw1l6919osqfqscjpzjwm3d4031mvg2",
      "black_problems": [
        "AALRYS"
      ],
      "blue_problems": [
        "LUBMEJD"
      ],
      "blue_solution_time": 20
    },
    {
      "trial_type": "call-function",
      "trial_index": 1,
      "time_elapsed": 5298,
      "internal_node_id": "0.0-1.0",
      "responseType": "finish",
      "participantID": "nhw1l6919osqfqscjpzjwm3d4031mvg2",
      "black_problems": [
        "AALRYS"
      ],
      "blue_problems": [
        "LUBMEJD"
      ],
      "blue_solution_time": 20
    },
    {
      "view_history": "[{\"page_index\":0,\"viewing_time\":8944},{\"page_index\":1,\"viewing_time\":14778},{\"page_index\":2,\"viewing_time\":5915}]",
      "rt": 29638,
      "trial_type": "instructions",
      "trial_index": 2,
      "time_elapsed": 34936,
      "internal_node_id": "0.0-2.0-0.0",
      "responseType": "finish",
      "participantID": "nhw1l6919osqfqscjpzjwm3d4031mvg2",
      "black_problems": [
        "AALRYS"
      ],
      "blue_problems": [
        "LUBMEJD"
      ],
      "blue_solution_time": 20
    },
    {
      "rt": 10895,
      "responses": "{\"Q0\":\"The answer to the blue colored anagram will be shown after 2 minutes.\"}",
      "trial_type": "survey-multi-choice",
      "trial_index": 3,
      "time_elapsed": 45833,
      "internal_node_id": "0.0-2.0-1.0",
      "responseType": "finish",
      "participantID": "nhw1l6919osqfqscjpzjwm3d4031mvg2",
      "black_problems": [
        "AALRYS"
      ],
      "blue_problems": [
        "LUBMEJD"
      ],
      "blue_solution_time": 20
    },
    {
      "rt": 4961,
      "stimulus": "<center><p>Now the <b>black</b> anagram will be shown to you.</p> <p>If you are not able to solve the anagram in <b>2 minutes</b>, you will be taken to the next screen.</p> <p>Press 'v' to view the anagram. </p></center>",
      "key_press": 86,
      "trial_type": "html-keyboard-response",
      "trial_index": 4,
      "time_elapsed": 50795,
      "internal_node_id": "0.0-3.0-0.0",
      "responseType": "finish",
      "participantID": "nhw1l6919osqfqscjpzjwm3d4031mvg2",
      "black_problems": [
        "AALRYS"
      ],
      "blue_problems": [
        "LUBMEJD"
      ],
      "blue_solution_time": 20
    },
    {
      "rt": 17626,
      "responses": "{\"Q0\":\"salary\"}",
      "trial_type": "survey-text",
      "trial_index": 5,
      "time_elapsed": 68422,
      "internal_node_id": "0.0-3.0-1.0",
      "responseType": "finish",
      "participantID": "nhw1l6919osqfqscjpzjwm3d4031mvg2",
      "black_problems": [
        "AALRYS"
      ],
      "blue_problems": [
        "LUBMEJD"
      ],
      "blue_solution_time": 20
    },
    {
      "rt": 13520,
      "responses": "{\"Q0\":3}",
      "trial_type": "survey-likert",
      "trial_index": 6,
      "time_elapsed": 81943,
      "internal_node_id": "0.0-3.0-3.0-0.0",
      "responseType": "finish",
      "participantID": "nhw1l6919osqfqscjpzjwm3d4031mvg2",
      "black_problems": [
        "AALRYS"
      ],
      "blue_problems": [
        "LUBMEJD"
      ],
      "blue_solution_time": 20
    },
    {
      "rt": 2369,
      "stimulus": "<center><p>Now the <b style=\"color:#069\">blue</b> anagram will be shown to you.</p> <p>If you are not able to solve the anagram in <b>2 minutes</b>, the answer will be shown to you.</p> <p>Press 'v' to view the anagram. </p></center>",
      "key_press": 86,
      "trial_type": "html-keyboard-response",
      "trial_index": 7,
      "time_elapsed": 84318,
      "internal_node_id": "0.0-3.1-0.1",
      "responseType": "finish",
      "participantID": "nhw1l6919osqfqscjpzjwm3d4031mvg2",
      "black_problems": [
        "AALRYS"
      ],
      "blue_problems": [
        "LUBMEJD"
      ],
      "blue_solution_time": 20
    },
    {
      "rt": 20012,
      "responses": "{\"Q0\":\"jum\"}",
      "trial_type": "survey-text",
      "trial_index": 8,
      "time_elapsed": 104331,
      "internal_node_id": "0.0-3.1-1.1",
      "responseType": "finish",
      "participantID": "nhw1l6919osqfqscjpzjwm3d4031mvg2",
      "black_problems": [
        "AALRYS"
      ],
      "blue_problems": [
        "LUBMEJD"
      ],
      "blue_solution_time": 20
    },
    {
      "rt": 5170,
      "stimulus": "<center>The answer is: <h2 style=\"color:#069\"><p>JUMBLED</p></h2><br/><br/></center>",
      "button_pressed": "0",
      "trial_type": "html-button-response",
      "trial_index": 9,
      "time_elapsed": 109502,
      "internal_node_id": "0.0-3.1-2.1-0.1",
      "responseType": "finish",
      "participantID": "nhw1l6919osqfqscjpzjwm3d4031mvg2",
      "black_problems": [
        "AALRYS"
      ],
      "blue_problems": [
        "LUBMEJD"
      ],
      "blue_solution_time": 20
    },
    {
      "rt": 9619,
      "responses": "{\"Q0\":2}",
      "trial_type": "survey-likert",
      "trial_index": 10,
      "time_elapsed": 119122,
      "internal_node_id": "0.0-3.1-3.1-0.1",
      "responseType": "finish",
      "participantID": "nhw1l6919osqfqscjpzjwm3d4031mvg2",
      "black_problems": [
        "AALRYS"
      ],
      "blue_problems": [
        "LUBMEJD"
      ],
      "blue_solution_time": 20
    }
  ],
  "__v": 0
},{
  "_id": {
    "$oid": "62abd4a38ea66300041ff245"
  },
  "data": [
    {
      "rt": 18281,
      "responses": "{\"Q0\":\" I consent to participate\"}",
      "trial_type": "survey-multi-choice",
      "trial_index": 0,
      "time_elapsed": 18320,
      "internal_node_id": "0.0-0.0",
      "responseType": "finish",
      "participantID": "0fb59nzcmaclaktcr1tkxa7unk3m9fxd",
      "black_problems": [
        "AYKAWLJ"
      ],
      "blue_problems": [
        "LUBMEJD"
      ],
      "blue_solution_time": 14
    },
    {
      "trial_type": "call-function",
      "trial_index": 1,
      "time_elapsed": 18331,
      "internal_node_id": "0.0-1.0",
      "responseType": "finish",
      "participantID": "0fb59nzcmaclaktcr1tkxa7unk3m9fxd",
      "black_problems": [
        "AYKAWLJ"
      ],
      "blue_problems": [
        "LUBMEJD"
      ],
      "blue_solution_time": 14
    },
    {
      "view_history": "[{\"page_index\":0,\"viewing_time\":14268},{\"page_index\":1,\"viewing_time\":8432},{\"page_index\":2,\"viewing_time\":6696}]",
      "rt": 29397,
      "trial_type": "instructions",
      "trial_index": 2,
      "time_elapsed": 47729,
      "internal_node_id": "0.0-2.0-0.0",
      "responseType": "finish",
      "participantID": "0fb59nzcmaclaktcr1tkxa7unk3m9fxd",
      "black_problems": [
        "AYKAWLJ"
      ],
      "blue_problems": [
        "LUBMEJD"
      ],
      "blue_solution_time": 14
    },
    {
      "rt": 14805,
      "responses": "{\"Q0\":\"The answer to the black colored anagram will be shown after 30 seconds.\"}",
      "trial_type": "survey-multi-choice",
      "trial_index": 3,
      "time_elapsed": 62542,
      "internal_node_id": "0.0-2.0-1.0",
      "responseType": "finish",
      "participantID": "0fb59nzcmaclaktcr1tkxa7unk3m9fxd",
      "black_problems": [
        "AYKAWLJ"
      ],
      "blue_problems": [
        "LUBMEJD"
      ],
      "blue_solution_time": 14
    },
    {
      "view_history": "[{\"page_index\":0,\"viewing_time\":7467},{\"page_index\":1,\"viewing_time\":12372},{\"page_index\":2,\"viewing_time\":5651}]",
      "rt": 25490,
      "trial_type": "instructions",
      "trial_index": 4,
      "time_elapsed": 92110,
      "internal_node_id": "0.0-2.1-0.1",
      "responseType": "finish",
      "participantID": "0fb59nzcmaclaktcr1tkxa7unk3m9fxd",
      "black_problems": [
        "AYKAWLJ"
      ],
      "blue_problems": [
        "LUBMEJD"
      ],
      "blue_solution_time": 14
    },
    {
      "rt": 22012,
      "responses": "{\"Q0\":\"The answer to the blue colored anagram will be shown after 2 minutes.\"}",
      "trial_type": "survey-multi-choice",
      "trial_index": 5,
      "time_elapsed": 114131,
      "internal_node_id": "0.0-2.1-1.1",
      "responseType": "finish",
      "participantID": "0fb59nzcmaclaktcr1tkxa7unk3m9fxd",
      "black_problems": [
        "AYKAWLJ"
      ],
      "blue_problems": [
        "LUBMEJD"
      ],
      "blue_solution_time": 14
    },
    {
      "rt": 5722,
      "stimulus": "<center><p>Now the <b style=\"color:#069\">blue</b> anagram will be shown to you.</p> <p>If you are not able to solve the anagram in <b>2 minutes</b>, the answer will be shown to you.</p> <p>Press 'v' to view the anagram. </p></center>",
      "key_press": 86,
      "trial_type": "html-keyboard-response",
      "trial_index": 6,
      "time_elapsed": 119859,
      "internal_node_id": "0.0-3.0-0.0",
      "responseType": "finish",
      "participantID": "0fb59nzcmaclaktcr1tkxa7unk3m9fxd",
      "black_problems": [
        "AYKAWLJ"
      ],
      "blue_problems": [
        "LUBMEJD"
      ],
      "blue_solution_time": 14
    },
    {
      "rt": 14009,
      "responses": "{\"Q0\":\"\"}",
      "trial_type": "survey-text",
      "trial_index": 7,
      "time_elapsed": 133872,
      "internal_node_id": "0.0-3.0-1.0",
      "responseType": "finish",
      "participantID": "0fb59nzcmaclaktcr1tkxa7unk3m9fxd",
      "black_problems": [
        "AYKAWLJ"
      ],
      "blue_problems": [
        "LUBMEJD"
      ],
      "blue_solution_time": 14
    },
    {
      "rt": 4355,
      "stimulus": "<center>The answer is: <h2 style=\"color:#069\"><p>JUMBLED</p></h2><br/><br/></center>",
      "button_pressed": "0",
      "trial_type": "html-button-response",
      "trial_index": 8,
      "time_elapsed": 138230,
      "internal_node_id": "0.0-3.0-2.0-0.0",
      "responseType": "finish",
      "participantID": "0fb59nzcmaclaktcr1tkxa7unk3m9fxd",
      "black_problems": [
        "AYKAWLJ"
      ],
      "blue_problems": [
        "LUBMEJD"
      ],
      "blue_solution_time": 14
    },
    {
      "rt": 11491,
      "responses": "{\"Q0\":1}",
      "trial_type": "survey-likert",
      "trial_index": 9,
      "time_elapsed": 149724,
      "internal_node_id": "0.0-3.0-3.0-0.0",
      "responseType": "finish",
      "participantID": "0fb59nzcmaclaktcr1tkxa7unk3m9fxd",
      "black_problems": [
        "AYKAWLJ"
      ],
      "blue_problems": [
        "LUBMEJD"
      ],
      "blue_solution_time": 14
    },
    {
      "rt": 3766,
      "stimulus": "<center><p>Now the <b>black</b> anagram will be shown to you.</p> <p>If you are not able to solve the anagram in <b>2 minutes</b>, you will be taken to the next screen.</p> <p>Press 'v' to view the anagram. </p></center>",
      "key_press": 86,
      "trial_type": "html-keyboard-response",
      "trial_index": 10,
      "time_elapsed": 153508,
      "internal_node_id": "0.0-3.1-0.1",
      "responseType": "finish",
      "participantID": "0fb59nzcmaclaktcr1tkxa7unk3m9fxd",
      "black_problems": [
        "AYKAWLJ"
      ],
      "blue_problems": [
        "LUBMEJD"
      ],
      "blue_solution_time": 14
    },
    {
      "rt": 120004,
      "responses": "{\"Q0\":\"\"}",
      "trial_type": "survey-text",
      "trial_index": 11,
      "time_elapsed": 273515,
      "internal_node_id": "0.0-3.1-1.1",
      "responseType": "finish",
      "participantID": "0fb59nzcmaclaktcr1tkxa7unk3m9fxd",
      "black_problems": [
        "AYKAWLJ"
      ],
      "blue_problems": [
        "LUBMEJD"
      ],
      "blue_solution_time": 14
    },
    {
      "rt": 9426,
      "responses": "{\"Q0\":4}",
      "trial_type": "survey-likert",
      "trial_index": 12,
      "time_elapsed": 282950,
      "internal_node_id": "0.0-3.1-3.1-0.1",
      "responseType": "finish",
      "participantID": "0fb59nzcmaclaktcr1tkxa7unk3m9fxd",
      "black_problems": [
        "AYKAWLJ"
      ],
      "blue_problems": [
        "LUBMEJD"
      ],
      "blue_solution_time": 14
    }
  ],
  "__v": 0
},{
  "_id": {
    "$oid": "62abd4a88ea66300041ff246"
  },
  "data": {
    "responseType": "start",
    "participantID": "zvepbyjmmoe4h1esczwom40dw2kjuwxs",
    "black_problems": [
      "AXPLINE"
    ],
    "blue_problems": [
      "AYUGHNT"
    ],
    "blue_solution_time": 10
  },
  "__v": 0
},{
  "_id": {
    "$oid": "62abd4b18ea66300041ff247"
  },
  "data": [
    {
      "rt": 8227,
      "responses": "{\"Q0\":\" I consent to participate\"}",
      "trial_type": "survey-multi-choice",
      "trial_index": 0,
      "time_elapsed": 8234,
      "internal_node_id": "0.0-0.0",
      "responseType": "finish",
      "participantID": "7gc179v2ctdck85nw00gheulrlqstx6n",
      "black_problems": [
        "AYKAWLJ"
      ],
      "blue_problems": [
        "LUBMEJD"
      ],
      "blue_solution_time": 10
    },
    {
      "trial_type": "call-function",
      "trial_index": 1,
      "time_elapsed": 8247,
      "internal_node_id": "0.0-1.0",
      "responseType": "finish",
      "participantID": "7gc179v2ctdck85nw00gheulrlqstx6n",
      "black_problems": [
        "AYKAWLJ"
      ],
      "blue_problems": [
        "LUBMEJD"
      ],
      "blue_solution_time": 10
    },
    {
      "view_history": "[{\"page_index\":0,\"viewing_time\":28893},{\"page_index\":1,\"viewing_time\":33726},{\"page_index\":2,\"viewing_time\":11997}]",
      "rt": 74618,
      "trial_type": "instructions",
      "trial_index": 2,
      "time_elapsed": 82866,
      "internal_node_id": "0.0-2.0-0.0",
      "responseType": "finish",
      "participantID": "7gc179v2ctdck85nw00gheulrlqstx6n",
      "black_problems": [
        "AYKAWLJ"
      ],
      "blue_problems": [
        "LUBMEJD"
      ],
      "blue_solution_time": 10
    },
    {
      "rt": 26202,
      "responses": "{\"Q0\":\"The answer to the blue colored anagram will be shown after 2 minutes.\"}",
      "trial_type": "survey-multi-choice",
      "trial_index": 3,
      "time_elapsed": 109077,
      "internal_node_id": "0.0-2.0-1.0",
      "responseType": "finish",
      "participantID": "7gc179v2ctdck85nw00gheulrlqstx6n",
      "black_problems": [
        "AYKAWLJ"
      ],
      "blue_problems": [
        "LUBMEJD"
      ],
      "blue_solution_time": 10
    },
    {
      "rt": 14737,
      "stimulus": "<center><p>Now the <b style=\"color:#069\">blue</b> anagram will be shown to you.</p> <p>If you are not able to solve the anagram in <b>2 minutes</b>, the answer will be shown to you.</p> <p>Press 'v' to view the anagram. </p></center>",
      "key_press": 86,
      "trial_type": "html-keyboard-response",
      "trial_index": 4,
      "time_elapsed": 123820,
      "internal_node_id": "0.0-3.0-0.0",
      "responseType": "finish",
      "participantID": "7gc179v2ctdck85nw00gheulrlqstx6n",
      "black_problems": [
        "AYKAWLJ"
      ],
      "blue_problems": [
        "LUBMEJD"
      ],
      "blue_solution_time": 10
    },
    {
      "rt": 10010,
      "responses": "{\"Q0\":\"\"}",
      "trial_type": "survey-text",
      "trial_index": 5,
      "time_elapsed": 133835,
      "internal_node_id": "0.0-3.0-1.0",
      "responseType": "finish",
      "participantID": "7gc179v2ctdck85nw00gheulrlqstx6n",
      "black_problems": [
        "AYKAWLJ"
      ],
      "blue_problems": [
        "LUBMEJD"
      ],
      "blue_solution_time": 10
    },
    {
      "rt": 4482,
      "stimulus": "<center>The answer is: <h2 style=\"color:#069\"><p>JUMBLED</p></h2><br/><br/></center>",
      "button_pressed": "0",
      "trial_type": "html-button-response",
      "trial_index": 6,
      "time_elapsed": 138320,
      "internal_node_id": "0.0-3.0-2.0-0.0",
      "responseType": "finish",
      "participantID": "7gc179v2ctdck85nw00gheulrlqstx6n",
      "black_problems": [
        "AYKAWLJ"
      ],
      "blue_problems": [
        "LUBMEJD"
      ],
      "blue_solution_time": 10
    },
    {
      "rt": 29645,
      "responses": "{\"Q0\":2}",
      "trial_type": "survey-likert",
      "trial_index": 7,
      "time_elapsed": 167968,
      "internal_node_id": "0.0-3.0-3.0-0.0",
      "responseType": "finish",
      "participantID": "7gc179v2ctdck85nw00gheulrlqstx6n",
      "black_problems": [
        "AYKAWLJ"
      ],
      "blue_problems": [
        "LUBMEJD"
      ],
      "blue_solution_time": 10
    },
    {
      "rt": 6864,
      "stimulus": "<center><p>Now the <b>black</b> anagram will be shown to you.</p> <p>If you are not able to solve the anagram in <b>2 minutes</b>, you will be taken to the next screen.</p> <p>Press 'v' to view the anagram. </p></center>",
      "key_press": 86,
      "trial_type": "html-keyboard-response",
      "trial_index": 8,
      "time_elapsed": 174859,
      "internal_node_id": "0.0-3.1-0.1",
      "responseType": "finish",
      "participantID": "7gc179v2ctdck85nw00gheulrlqstx6n",
      "black_problems": [
        "AYKAWLJ"
      ],
      "blue_problems": [
        "LUBMEJD"
      ],
      "blue_solution_time": 10
    },
    {
      "rt": 30249,
      "responses": "{\"Q0\":\"JAWAKLY\"}",
      "trial_type": "survey-text",
      "trial_index": 9,
      "time_elapsed": 205110,
      "internal_node_id": "0.0-3.1-1.1",
      "responseType": "finish",
      "participantID": "7gc179v2ctdck85nw00gheulrlqstx6n",
      "black_problems": [
        "AYKAWLJ"
      ],
      "blue_problems": [
        "LUBMEJD"
      ],
      "blue_solution_time": 10
    },
    {
      "rt": 15710,
      "responses": "{\"Q0\":0}",
      "trial_type": "survey-likert",
      "trial_index": 10,
      "time_elapsed": 220823,
      "internal_node_id": "0.0-3.1-3.1-0.1",
      "responseType": "finish",
      "participantID": "7gc179v2ctdck85nw00gheulrlqstx6n",
      "black_problems": [
        "AYKAWLJ"
      ],
      "blue_problems": [
        "LUBMEJD"
      ],
      "blue_solution_time": 10
    }
  ],
  "__v": 0
},{
  "_id": {
    "$oid": "62abd4b28ea66300041ff248"
  },
  "data": [
    {
      "rt": 5641,
      "responses": "{\"Q0\":\" I consent to participate\"}",
      "trial_type": "survey-multi-choice",
      "trial_index": 0,
      "time_elapsed": 5653,
      "internal_node_id": "0.0-0.0",
      "responseType": "finish",
      "participantID": "c8hv554bgnqkxx8yoomy5am9jpk90y9y",
      "black_problems": [
        "AXPLINE"
      ],
      "blue_problems": [
        "AYUGHNT"
      ],
      "blue_solution_time": 14
    },
    {
      "trial_type": "call-function",
      "trial_index": 1,
      "time_elapsed": 5656,
      "internal_node_id": "0.0-1.0",
      "responseType": "finish",
      "participantID": "c8hv554bgnqkxx8yoomy5am9jpk90y9y",
      "black_problems": [
        "AXPLINE"
      ],
      "blue_problems": [
        "AYUGHNT"
      ],
      "blue_solution_time": 14
    },
    {
      "view_history": "[{\"page_index\":0,\"viewing_time\":8558},{\"page_index\":1,\"viewing_time\":8742},{\"page_index\":2,\"viewing_time\":5824}]",
      "rt": 23124,
      "trial_type": "instructions",
      "trial_index": 2,
      "time_elapsed": 28780,
      "internal_node_id": "0.0-2.0-0.0",
      "responseType": "finish",
      "participantID": "c8hv554bgnqkxx8yoomy5am9jpk90y9y",
      "black_problems": [
        "AXPLINE"
      ],
      "blue_problems": [
        "AYUGHNT"
      ],
      "blue_solution_time": 14
    },
    {
      "rt": 9639,
      "responses": "{\"Q0\":\"The answer to the blue colored anagram will be shown after 2 minutes.\"}",
      "trial_type": "survey-multi-choice",
      "trial_index": 3,
      "time_elapsed": 38420,
      "internal_node_id": "0.0-2.0-1.0",
      "responseType": "finish",
      "participantID": "c8hv554bgnqkxx8yoomy5am9jpk90y9y",
      "black_problems": [
        "AXPLINE"
      ],
      "blue_problems": [
        "AYUGHNT"
      ],
      "blue_solution_time": 14
    },
    {
      "rt": 5464,
      "stimulus": "<center><p>Now the <b style=\"color:#069\">blue</b> anagram will be shown to you.</p> <p>If you are not able to solve the anagram in <b>2 minutes</b>, the answer will be shown to you.</p> <p>Press 'v' to view the anagram. </p></center>",
      "key_press": 86,
      "trial_type": "html-keyboard-response",
      "trial_index": 4,
      "time_elapsed": 43887,
      "internal_node_id": "0.0-3.0-0.0",
      "responseType": "finish",
      "participantID": "c8hv554bgnqkxx8yoomy5am9jpk90y9y",
      "black_problems": [
        "AXPLINE"
      ],
      "blue_problems": [
        "AYUGHNT"
      ],
      "blue_solution_time": 14
    },
    {
      "rt": 6315,
      "responses": "{\"Q0\":\"Naughty\"}",
      "trial_type": "survey-text",
      "trial_index": 5,
      "time_elapsed": 50202,
      "internal_node_id": "0.0-3.0-1.0",
      "responseType": "finish",
      "participantID": "c8hv554bgnqkxx8yoomy5am9jpk90y9y",
      "black_problems": [
        "AXPLINE"
      ],
      "blue_problems": [
        "AYUGHNT"
      ],
      "blue_solution_time": 14
    },
    {
      "rt": 1137,
      "stimulus": "<center>The answer is: <h2 style=\"color:#069\"><p>NAUGHTY</p></h2><br/><br/></center>",
      "button_pressed": "0",
      "trial_type": "html-button-response",
      "trial_index": 6,
      "time_elapsed": 51340,
      "internal_node_id": "0.0-3.0-2.0-0.0",
      "responseType": "finish",
      "participantID": "c8hv554bgnqkxx8yoomy5am9jpk90y9y",
      "black_problems": [
        "AXPLINE"
      ],
      "blue_problems": [
        "AYUGHNT"
      ],
      "blue_solution_time": 14
    },
    {
      "rt": 8435,
      "responses": "{\"Q0\":5}",
      "trial_type": "survey-likert",
      "trial_index": 7,
      "time_elapsed": 59776,
      "internal_node_id": "0.0-3.0-3.0-0.0",
      "responseType": "finish",
      "participantID": "c8hv554bgnqkxx8yoomy5am9jpk90y9y",
      "black_problems": [
        "AXPLINE"
      ],
      "blue_problems": [
        "AYUGHNT"
      ],
      "blue_solution_time": 14
    },
    {
      "rt": 3674,
      "stimulus": "<center><p>Now the <b>black</b> anagram will be shown to you.</p> <p>If you are not able to solve the anagram in <b>2 minutes</b>, you will be taken to the next screen.</p> <p>Press 'v' to view the anagram. </p></center>",
      "key_press": 86,
      "trial_type": "html-keyboard-response",
      "trial_index": 8,
      "time_elapsed": 63457,
      "internal_node_id": "0.0-3.1-0.1",
      "responseType": "finish",
      "participantID": "c8hv554bgnqkxx8yoomy5am9jpk90y9y",
      "black_problems": [
        "AXPLINE"
      ],
      "blue_problems": [
        "AYUGHNT"
      ],
      "blue_solution_time": 14
    },
    {
      "rt": 14962,
      "responses": "{\"Q0\":\"paxline\"}",
      "trial_type": "survey-text",
      "trial_index": 9,
      "time_elapsed": 78420,
      "internal_node_id": "0.0-3.1-1.1",
      "responseType": "finish",
      "participantID": "c8hv554bgnqkxx8yoomy5am9jpk90y9y",
      "black_problems": [
        "AXPLINE"
      ],
      "blue_problems": [
        "AYUGHNT"
      ],
      "blue_solution_time": 14
    },
    {
      "rt": 8030,
      "responses": "{\"Q0\":4}",
      "trial_type": "survey-likert",
      "trial_index": 10,
      "time_elapsed": 86450,
      "internal_node_id": "0.0-3.1-3.1-0.1",
      "responseType": "finish",
      "participantID": "c8hv554bgnqkxx8yoomy5am9jpk90y9y",
      "black_problems": [
        "AXPLINE"
      ],
      "blue_problems": [
        "AYUGHNT"
      ],
      "blue_solution_time": 14
    }
  ],
  "__v": 0
},{
  "_id": {
    "$oid": "62abd4b38ea66300041ff249"
  },
  "data": {
    "responseType": "start",
    "participantID": "tuk2z2j0gkklo7x4p3ylgo9vrcyc78sk",
    "black_problems": [
      "AYKAWLJ"
    ],
    "blue_problems": [
      "AYUGHNT"
    ],
    "blue_solution_time": 19
  },
  "__v": 0
},{
  "_id": {
    "$oid": "62abd4b48ea66300041ff24a"
  },
  "data": [
    {
      "rt": 28291,
      "responses": "{\"Q0\":\" I consent to participate\"}",
      "trial_type": "survey-multi-choice",
      "trial_index": 0,
      "time_elapsed": 28316,
      "internal_node_id": "0.0-0.0",
      "responseType": "finish",
      "participantID": "6h1afq4t6xbnvccglckwvxgfjk7s679u",
      "black_problems": [
        "CLAIGER"
      ],
      "blue_problems": [
        "AYUGHNT"
      ],
      "blue_solution_time": 14
    },
    {
      "trial_type": "call-function",
      "trial_index": 1,
      "time_elapsed": 28321,
      "internal_node_id": "0.0-1.0",
      "responseType": "finish",
      "participantID": "6h1afq4t6xbnvccglckwvxgfjk7s679u",
      "black_problems": [
        "CLAIGER"
      ],
      "blue_problems": [
        "AYUGHNT"
      ],
      "blue_solution_time": 14
    },
    {
      "view_history": "[{\"page_index\":0,\"viewing_time\":11519},{\"page_index\":1,\"viewing_time\":8225},{\"page_index\":2,\"viewing_time\":5857}]",
      "rt": 25602,
      "trial_type": "instructions",
      "trial_index": 2,
      "time_elapsed": 53923,
      "internal_node_id": "0.0-2.0-0.0",
      "responseType": "finish",
      "participantID": "6h1afq4t6xbnvccglckwvxgfjk7s679u",
      "black_problems": [
        "CLAIGER"
      ],
      "blue_problems": [
        "AYUGHNT"
      ],
      "blue_solution_time": 14
    },
    {
      "rt": 8824,
      "responses": "{\"Q0\":\"The answer to the blue colored anagram will be shown after 2 minutes.\"}",
      "trial_type": "survey-multi-choice",
      "trial_index": 3,
      "time_elapsed": 62748,
      "internal_node_id": "0.0-2.0-1.0",
      "responseType": "finish",
      "participantID": "6h1afq4t6xbnvccglckwvxgfjk7s679u",
      "black_problems": [
        "CLAIGER"
      ],
      "blue_problems": [
        "AYUGHNT"
      ],
      "blue_solution_time": 14
    },
    {
      "rt": 5028,
      "stimulus": "<center><p>Now the <b>black</b> anagram will be shown to you.</p> <p>If you are not able to solve the anagram in <b>2 minutes</b>, you will be taken to the next screen.</p> <p>Press 'v' to view the anagram. </p></center>",
      "key_press": 86,
      "trial_type": "html-keyboard-response",
      "trial_index": 4,
      "time_elapsed": 67780,
      "internal_node_id": "0.0-3.0-0.0",
      "responseType": "finish",
      "participantID": "6h1afq4t6xbnvccglckwvxgfjk7s679u",
      "black_problems": [
        "CLAIGER"
      ],
      "blue_problems": [
        "AYUGHNT"
      ],
      "blue_solution_time": 14
    },
    {
      "rt": 6512,
      "responses": "{\"Q0\":\"Glacier\"}",
      "trial_type": "survey-text",
      "trial_index": 5,
      "time_elapsed": 74294,
      "internal_node_id": "0.0-3.0-1.0",
      "responseType": "finish",
      "participantID": "6h1afq4t6xbnvccglckwvxgfjk7s679u",
      "black_problems": [
        "CLAIGER"
      ],
      "blue_problems": [
        "AYUGHNT"
      ],
      "blue_solution_time": 14
    },
    {
      "rt": 11164,
      "responses": "{\"Q0\":4}",
      "trial_type": "survey-likert",
      "trial_index": 6,
      "time_elapsed": 85459,
      "internal_node_id": "0.0-3.0-3.0-0.0",
      "responseType": "finish",
      "participantID": "6h1afq4t6xbnvccglckwvxgfjk7s679u",
      "black_problems": [
        "CLAIGER"
      ],
      "blue_problems": [
        "AYUGHNT"
      ],
      "blue_solution_time": 14
    },
    {
      "rt": 1473,
      "stimulus": "<center><p>Now the <b style=\"color:#069\">blue</b> anagram will be shown to you.</p> <p>If you are not able to solve the anagram in <b>2 minutes</b>, the answer will be shown to you.</p> <p>Press 'v' to view the anagram. </p></center>",
      "key_press": 86,
      "trial_type": "html-keyboard-response",
      "trial_index": 7,
      "time_elapsed": 86947,
      "internal_node_id": "0.0-3.1-0.1",
      "responseType": "finish",
      "participantID": "6h1afq4t6xbnvccglckwvxgfjk7s679u",
      "black_problems": [
        "CLAIGER"
      ],
      "blue_problems": [
        "AYUGHNT"
      ],
      "blue_solution_time": 14
    },
    {
      "rt": 7743,
      "responses": "{\"Q0\":\"Naughty\"}",
      "trial_type": "survey-text",
      "trial_index": 8,
      "time_elapsed": 94691,
      "internal_node_id": "0.0-3.1-1.1",
      "responseType": "finish",
      "participantID": "6h1afq4t6xbnvccglckwvxgfjk7s679u",
      "black_problems": [
        "CLAIGER"
      ],
      "blue_problems": [
        "AYUGHNT"
      ],
      "blue_solution_time": 14
    },
    {
      "rt": 2376,
      "stimulus": "<center>The answer is: <h2 style=\"color:#069\"><p>NAUGHTY</p></h2><br/><br/></center>",
      "button_pressed": "0",
      "trial_type": "html-button-response",
      "trial_index": 9,
      "time_elapsed": 97068,
      "internal_node_id": "0.0-3.1-2.1-0.1",
      "responseType": "finish",
      "participantID": "6h1afq4t6xbnvccglckwvxgfjk7s679u",
      "black_problems": [
        "CLAIGER"
      ],
      "blue_problems": [
        "AYUGHNT"
      ],
      "blue_solution_time": 14
    },
    {
      "rt": 3039,
      "responses": "{\"Q0\":4}",
      "trial_type": "survey-likert",
      "trial_index": 10,
      "time_elapsed": 100109,
      "internal_node_id": "0.0-3.1-3.1-0.1",
      "responseType": "finish",
      "participantID": "6h1afq4t6xbnvccglckwvxgfjk7s679u",
      "black_problems": [
        "CLAIGER"
      ],
      "blue_problems": [
        "AYUGHNT"
      ],
      "blue_solution_time": 14
    }
  ],
  "__v": 0
},{
  "_id": {
    "$oid": "62abd4b58ea66300041ff24b"
  },
  "data": {
    "responseType": "start",
    "participantID": "jhfq2m5qfdt78448pt5czr6fbzfrcwvj",
    "black_problems": [
      "AXPLINE"
    ],
    "blue_problems": [
      "LUBMEJD"
    ],
    "blue_solution_time": 10
  },
  "__v": 0
},{
  "_id": {
    "$oid": "62abd4b88ea66300041ff24c"
  },
  "data": {
    "responseType": "start",
    "participantID": "fzl2mkcy1z4tb1olkydqsv4jutw9b303",
    "black_problems": [
      "AXPLINE"
    ],
    "blue_problems": [
      "AYUGHNT"
    ],
    "blue_solution_time": 18
  },
  "__v": 0
},{
  "_id": {
    "$oid": "62abd4bb8ea66300041ff24d"
  },
  "data": [
    {
      "rt": 18347,
      "responses": "{\"Q0\":\" I consent to participate\"}",
      "trial_type": "survey-multi-choice",
      "trial_index": 0,
      "time_elapsed": 18367,
      "internal_node_id": "0.0-0.0",
      "responseType": "finish",
      "participantID": "8t1l81yeree7q458a2loqmz9tddgtj86",
      "black_problems": [
        "CLAIGER"
      ],
      "blue_problems": [
        "AYUGHNT"
      ],
      "blue_solution_time": 11
    },
    {
      "trial_type": "call-function",
      "trial_index": 1,
      "time_elapsed": 18372,
      "internal_node_id": "0.0-1.0",
      "responseType": "finish",
      "participantID": "8t1l81yeree7q458a2loqmz9tddgtj86",
      "black_problems": [
        "CLAIGER"
      ],
      "blue_problems": [
        "AYUGHNT"
      ],
      "blue_solution_time": 11
    },
    {
      "view_history": "[{\"page_index\":0,\"viewing_time\":8720},{\"page_index\":1,\"viewing_time\":13493},{\"page_index\":2,\"viewing_time\":5617}]",
      "rt": 27830,
      "trial_type": "instructions",
      "trial_index": 2,
      "time_elapsed": 46203,
      "internal_node_id": "0.0-2.0-0.0",
      "responseType": "finish",
      "participantID": "8t1l81yeree7q458a2loqmz9tddgtj86",
      "black_problems": [
        "CLAIGER"
      ],
      "blue_problems": [
        "AYUGHNT"
      ],
      "blue_solution_time": 11
    },
    {
      "rt": 8297,
      "responses": "{\"Q0\":\"The answer to the black colored anagram will be shown after 1 minute.\"}",
      "trial_type": "survey-multi-choice",
      "trial_index": 3,
      "time_elapsed": 54505,
      "internal_node_id": "0.0-2.0-1.0",
      "responseType": "finish",
      "participantID": "8t1l81yeree7q458a2loqmz9tddgtj86",
      "black_problems": [
        "CLAIGER"
      ],
      "blue_problems": [
        "AYUGHNT"
      ],
      "blue_solution_time": 11
    },
    {
      "view_history": "[{\"page_index\":0,\"viewing_time\":6419},{\"page_index\":1,\"viewing_time\":5577},{\"page_index\":2,\"viewing_time\":5666}]",
      "rt": 17662,
      "trial_type": "instructions",
      "trial_index": 4,
      "time_elapsed": 74170,
      "internal_node_id": "0.0-2.1-0.1",
      "responseType": "finish",
      "participantID": "8t1l81yeree7q458a2loqmz9tddgtj86",
      "black_problems": [
        "CLAIGER"
      ],
      "blue_problems": [
        "AYUGHNT"
      ],
      "blue_solution_time": 11
    },
    {
      "rt": 2232,
      "responses": "{\"Q0\":\"The answer to the blue colored anagram will be shown after 2 minutes.\"}",
      "trial_type": "survey-multi-choice",
      "trial_index": 5,
      "time_elapsed": 76410,
      "internal_node_id": "0.0-2.1-1.1",
      "responseType": "finish",
      "participantID": "8t1l81yeree7q458a2loqmz9tddgtj86",
      "black_problems": [
        "CLAIGER"
      ],
      "blue_problems": [
        "AYUGHNT"
      ],
      "blue_solution_time": 11
    },
    {
      "rt": 3274,
      "stimulus": "<center><p>Now the <b style=\"color:#069\">blue</b> anagram will be shown to you.</p> <p>If you are not able to solve the anagram in <b>2 minutes</b>, the answer will be shown to you.</p> <p>Press 'v' to view the anagram. </p></center>",
      "key_press": 86,
      "trial_type": "html-keyboard-response",
      "trial_index": 6,
      "time_elapsed": 79686,
      "internal_node_id": "0.0-3.0-0.0",
      "responseType": "finish",
      "participantID": "8t1l81yeree7q458a2loqmz9tddgtj86",
      "black_problems": [
        "CLAIGER"
      ],
      "blue_problems": [
        "AYUGHNT"
      ],
      "blue_solution_time": 11
    },
    {
      "rt": 4280,
      "responses": "{\"Q0\":\"naughty\"}",
      "trial_type": "survey-text",
      "trial_index": 7,
      "time_elapsed": 83968,
      "internal_node_id": "0.0-3.0-1.0",
      "responseType": "finish",
      "participantID": "8t1l81yeree7q458a2loqmz9tddgtj86",
      "black_problems": [
        "CLAIGER"
      ],
      "blue_problems": [
        "AYUGHNT"
      ],
      "blue_solution_time": 11
    },
    {
      "rt": 1308,
      "stimulus": "<center>The answer is: <h2 style=\"color:#069\"><p>NAUGHTY</p></h2><br/><br/></center>",
      "button_pressed": "0",
      "trial_type": "html-button-response",
      "trial_index": 8,
      "time_elapsed": 85277,
      "internal_node_id": "0.0-3.0-2.0-0.0",
      "responseType": "finish",
      "participantID": "8t1l81yeree7q458a2loqmz9tddgtj86",
      "black_problems": [
        "CLAIGER"
      ],
      "blue_problems": [
        "AYUGHNT"
      ],
      "blue_solution_time": 11
    },
    {
      "rt": 9172,
      "responses": "{\"Q0\":4}",
      "trial_type": "survey-likert",
      "trial_index": 9,
      "time_elapsed": 94451,
      "internal_node_id": "0.0-3.0-3.0-0.0",
      "responseType": "finish",
      "participantID": "8t1l81yeree7q458a2loqmz9tddgtj86",
      "black_problems": [
        "CLAIGER"
      ],
      "blue_problems": [
        "AYUGHNT"
      ],
      "blue_solution_time": 11
    },
    {
      "rt": 2407,
      "stimulus": "<center><p>Now the <b>black</b> anagram will be shown to you.</p> <p>If you are not able to solve the anagram in <b>2 minutes</b>, you will be taken to the next screen.</p> <p>Press 'v' to view the anagram. </p></center>",
      "key_press": 86,
      "trial_type": "html-keyboard-response",
      "trial_index": 10,
      "time_elapsed": 96867,
      "internal_node_id": "0.0-3.1-0.1",
      "responseType": "finish",
      "participantID": "8t1l81yeree7q458a2loqmz9tddgtj86",
      "black_problems": [
        "CLAIGER"
      ],
      "blue_problems": [
        "AYUGHNT"
      ],
      "blue_solution_time": 11
    },
    {
      "rt": 8962,
      "responses": "{\"Q0\":\"glacier\"}",
      "trial_type": "survey-text",
      "trial_index": 11,
      "time_elapsed": 105833,
      "internal_node_id": "0.0-3.1-1.1",
      "responseType": "finish",
      "participantID": "8t1l81yeree7q458a2loqmz9tddgtj86",
      "black_problems": [
        "CLAIGER"
      ],
      "blue_problems": [
        "AYUGHNT"
      ],
      "blue_solution_time": 11
    },
    {
      "rt": 3458,
      "responses": "{\"Q0\":5}",
      "trial_type": "survey-likert",
      "trial_index": 12,
      "time_elapsed": 109294,
      "internal_node_id": "0.0-3.1-3.1-0.1",
      "responseType": "finish",
      "participantID": "8t1l81yeree7q458a2loqmz9tddgtj86",
      "black_problems": [
        "CLAIGER"
      ],
      "blue_problems": [
        "AYUGHNT"
      ],
      "blue_solution_time": 11
    }
  ],
  "__v": 0
},{
  "_id": {
    "$oid": "62abd4bc8ea66300041ff24e"
  },
  "data": [
    {
      "rt": 4303,
      "responses": "{\"Q0\":\" I consent to participate\"}",
      "trial_type": "survey-multi-choice",
      "trial_index": 0,
      "time_elapsed": 4307,
      "internal_node_id": "0.0-0.0",
      "responseType": "finish",
      "participantID": "qeavex1stpe9rvrzd62vlwqno6yqo9et",
      "black_problems": [
        "AXPLINE"
      ],
      "blue_problems": [
        "AALRYS"
      ],
      "blue_solution_time": 10
    },
    {
      "trial_type": "call-function",
      "trial_index": 1,
      "time_elapsed": 4309,
      "internal_node_id": "0.0-1.0",
      "responseType": "finish",
      "participantID": "qeavex1stpe9rvrzd62vlwqno6yqo9et",
      "black_problems": [
        "AXPLINE"
      ],
      "blue_problems": [
        "AALRYS"
      ],
      "blue_solution_time": 10
    },
    {
      "view_history": "[{\"page_index\":0,\"viewing_time\":11289},{\"page_index\":1,\"viewing_time\":13481},{\"page_index\":2,\"viewing_time\":5892}]",
      "rt": 30662,
      "trial_type": "instructions",
      "trial_index": 2,
      "time_elapsed": 34971,
      "internal_node_id": "0.0-2.0-0.0",
      "responseType": "finish",
      "participantID": "qeavex1stpe9rvrzd62vlwqno6yqo9et",
      "black_problems": [
        "AXPLINE"
      ],
      "blue_problems": [
        "AALRYS"
      ],
      "blue_solution_time": 10
    },
    {
      "rt": 25934,
      "responses": "{\"Q0\":\"The answer to the blue colored anagram will not be shown.\"}",
      "trial_type": "survey-multi-choice",
      "trial_index": 3,
      "time_elapsed": 60909,
      "internal_node_id": "0.0-2.0-1.0",
      "responseType": "finish",
      "participantID": "qeavex1stpe9rvrzd62vlwqno6yqo9et",
      "black_problems": [
        "AXPLINE"
      ],
      "blue_problems": [
        "AALRYS"
      ],
      "blue_solution_time": 10
    },
    {
      "view_history": "[{\"page_index\":0,\"viewing_time\":6188},{\"page_index\":1,\"viewing_time\":10901},{\"page_index\":2,\"viewing_time\":6350}]",
      "rt": 23439,
      "trial_type": "instructions",
      "trial_index": 4,
      "time_elapsed": 87034,
      "internal_node_id": "0.0-2.1-0.1",
      "responseType": "finish",
      "participantID": "qeavex1stpe9rvrzd62vlwqno6yqo9et",
      "black_problems": [
        "AXPLINE"
      ],
      "blue_problems": [
        "AALRYS"
      ],
      "blue_solution_time": 10
    },
    {
      "rt": 4441,
      "responses": "{\"Q0\":\"The answer to the blue colored anagram will be shown after 2 minutes.\"}",
      "trial_type": "survey-multi-choice",
      "trial_index": 5,
      "time_elapsed": 91478,
      "internal_node_id": "0.0-2.1-1.1",
      "responseType": "finish",
      "participantID": "qeavex1stpe9rvrzd62vlwqno6yqo9et",
      "black_problems": [
        "AXPLINE"
      ],
      "blue_problems": [
        "AALRYS"
      ],
      "blue_solution_time": 10
    },
    {
      "rt": 5314,
      "stimulus": "<center><p>Now the <b>black</b> anagram will be shown to you.</p> <p>If you are not able to solve the anagram in <b>2 minutes</b>, you will be taken to the next screen.</p> <p>Press 'v' to view the anagram. </p></center>",
      "key_press": 86,
      "trial_type": "html-keyboard-response",
      "trial_index": 6,
      "time_elapsed": 96792,
      "internal_node_id": "0.0-3.0-0.0",
      "responseType": "finish",
      "participantID": "qeavex1stpe9rvrzd62vlwqno6yqo9et",
      "black_problems": [
        "AXPLINE"
      ],
      "blue_problems": [
        "AALRYS"
      ],
      "blue_solution_time": 10
    },
    {
      "rt": 47528,
      "responses": "{\"Q0\":\"EXPLAIN\"}",
      "trial_type": "survey-text",
      "trial_index": 7,
      "time_elapsed": 144322,
      "internal_node_id": "0.0-3.0-1.0",
      "responseType": "finish",
      "participantID": "qeavex1stpe9rvrzd62vlwqno6yqo9et",
      "black_problems": [
        "AXPLINE"
      ],
      "blue_problems": [
        "AALRYS"
      ],
      "blue_solution_time": 10
    },
    {
      "rt": 9368,
      "responses": "{\"Q0\":5}",
      "trial_type": "survey-likert",
      "trial_index": 8,
      "time_elapsed": 153691,
      "internal_node_id": "0.0-3.0-3.0-0.0",
      "responseType": "finish",
      "participantID": "qeavex1stpe9rvrzd62vlwqno6yqo9et",
      "black_problems": [
        "AXPLINE"
      ],
      "blue_problems": [
        "AALRYS"
      ],
      "blue_solution_time": 10
    },
    {
      "rt": 2711,
      "stimulus": "<center><p>Now the <b style=\"color:#069\">blue</b> anagram will be shown to you.</p> <p>If you are not able to solve the anagram in <b>2 minutes</b>, the answer will be shown to you.</p> <p>Press 'v' to view the anagram. </p></center>",
      "key_press": 86,
      "trial_type": "html-keyboard-response",
      "trial_index": 9,
      "time_elapsed": 156413,
      "internal_node_id": "0.0-3.1-0.1",
      "responseType": "finish",
      "participantID": "qeavex1stpe9rvrzd62vlwqno6yqo9et",
      "black_problems": [
        "AXPLINE"
      ],
      "blue_problems": [
        "AALRYS"
      ],
      "blue_solution_time": 10
    },
    {
      "rt": 10005,
      "responses": "{\"Q0\":\"SYRLAA \"}",
      "trial_type": "survey-text",
      "trial_index": 10,
      "time_elapsed": 166420,
      "internal_node_id": "0.0-3.1-1.1",
      "responseType": "finish",
      "participantID": "qeavex1stpe9rvrzd62vlwqno6yqo9et",
      "black_problems": [
        "AXPLINE"
      ],
      "blue_problems": [
        "AALRYS"
      ],
      "blue_solution_time": 10
    },
    {
      "rt": 2163,
      "stimulus": "<center>The answer is: <h2 style=\"color:#069\"><p>SALARY</p></h2><br/><br/></center>",
      "button_pressed": "0",
      "trial_type": "html-button-response",
      "trial_index": 11,
      "time_elapsed": 168584,
      "internal_node_id": "0.0-3.1-2.1-0.1",
      "responseType": "finish",
      "participantID": "qeavex1stpe9rvrzd62vlwqno6yqo9et",
      "black_problems": [
        "AXPLINE"
      ],
      "blue_problems": [
        "AALRYS"
      ],
      "blue_solution_time": 10
    },
    {
      "rt": 9218,
      "responses": "{\"Q0\":0}",
      "trial_type": "survey-likert",
      "trial_index": 12,
      "time_elapsed": 177804,
      "internal_node_id": "0.0-3.1-3.1-0.1",
      "responseType": "finish",
      "participantID": "qeavex1stpe9rvrzd62vlwqno6yqo9et",
      "black_problems": [
        "AXPLINE"
      ],
      "blue_problems": [
        "AALRYS"
      ],
      "blue_solution_time": 10
    }
  ],
  "__v": 0
},{
  "_id": {
    "$oid": "62abd4bf8ea66300041ff24f"
  },
  "data": {
    "responseType": "start",
    "participantID": "ebgfdelk692jkvacgpw6hggfs4vr851k",
    "black_problems": [
      "CLAIGER"
    ],
    "blue_problems": [
      "LUBMEJD"
    ],
    "blue_solution_time": 13
  },
  "__v": 0
},{
  "_id": {
    "$oid": "62abd4c18ea66300041ff250"
  },
  "data": [
    {
      "rt": 11274,
      "responses": "{\"Q0\":\" I consent to participate\"}",
      "trial_type": "survey-multi-choice",
      "trial_index": 0,
      "time_elapsed": 11279,
      "internal_node_id": "0.0-0.0",
      "responseType": "finish",
      "participantID": "4z1moyalp76gkm00whzlw7x0xbdp42l4",
      "black_problems": [
        "AYUGHNT"
      ],
      "blue_problems": [
        "AYKAWLJ"
      ],
      "blue_solution_time": 16
    },
    {
      "trial_type": "call-function",
      "trial_index": 1,
      "time_elapsed": 11282,
      "internal_node_id": "0.0-1.0",
      "responseType": "finish",
      "participantID": "4z1moyalp76gkm00whzlw7x0xbdp42l4",
      "black_problems": [
        "AYUGHNT"
      ],
      "blue_problems": [
        "AYKAWLJ"
      ],
      "blue_solution_time": 16
    },
    {
      "view_history": "[{\"page_index\":0,\"viewing_time\":16526},{\"page_index\":1,\"viewing_time\":28792},{\"page_index\":2,\"viewing_time\":6344}]",
      "rt": 51663,
      "trial_type": "instructions",
      "trial_index": 2,
      "time_elapsed": 62945,
      "internal_node_id": "0.0-2.0-0.0",
      "responseType": "finish",
      "participantID": "4z1moyalp76gkm00whzlw7x0xbdp42l4",
      "black_problems": [
        "AYUGHNT"
      ],
      "blue_problems": [
        "AYKAWLJ"
      ],
      "blue_solution_time": 16
    },
    {
      "rt": 31311,
      "responses": "{\"Q0\":\"The answer to the blue colored anagram will be shown after 2 minutes.\"}",
      "trial_type": "survey-multi-choice",
      "trial_index": 3,
      "time_elapsed": 94257,
      "internal_node_id": "0.0-2.0-1.0",
      "responseType": "finish",
      "participantID": "4z1moyalp76gkm00whzlw7x0xbdp42l4",
      "black_problems": [
        "AYUGHNT"
      ],
      "blue_problems": [
        "AYKAWLJ"
      ],
      "blue_solution_time": 16
    },
    {
      "rt": 5644,
      "stimulus": "<center><p>Now the <b style=\"color:#069\">blue</b> anagram will be shown to you.</p> <p>If you are not able to solve the anagram in <b>2 minutes</b>, the answer will be shown to you.</p> <p>Press 'v' to view the anagram. </p></center>",
      "key_press": 86,
      "trial_type": "html-keyboard-response",
      "trial_index": 4,
      "time_elapsed": 99902,
      "internal_node_id": "0.0-3.0-0.0",
      "responseType": "finish",
      "participantID": "4z1moyalp76gkm00whzlw7x0xbdp42l4",
      "black_problems": [
        "AYUGHNT"
      ],
      "blue_problems": [
        "AYKAWLJ"
      ],
      "blue_solution_time": 16
    },
    {
      "rt": 16016,
      "responses": "{\"Q0\":\"\"}",
      "trial_type": "survey-text",
      "trial_index": 5,
      "time_elapsed": 115919,
      "internal_node_id": "0.0-3.0-1.0",
      "responseType": "finish",
      "participantID": "4z1moyalp76gkm00whzlw7x0xbdp42l4",
      "black_problems": [
        "AYUGHNT"
      ],
      "blue_problems": [
        "AYKAWLJ"
      ],
      "blue_solution_time": 16
    },
    {
      "rt": 3921,
      "stimulus": "<center>The answer is: <h2 style=\"color:#069\"><p>JAYWALK</p></h2><br/><br/></center>",
      "button_pressed": "0",
      "trial_type": "html-button-response",
      "trial_index": 6,
      "time_elapsed": 119840,
      "internal_node_id": "0.0-3.0-2.0-0.0",
      "responseType": "finish",
      "participantID": "4z1moyalp76gkm00whzlw7x0xbdp42l4",
      "black_problems": [
        "AYUGHNT"
      ],
      "blue_problems": [
        "AYKAWLJ"
      ],
      "blue_solution_time": 16
    },
    {
      "rt": 21864,
      "responses": "{\"Q0\":0}",
      "trial_type": "survey-likert",
      "trial_index": 7,
      "time_elapsed": 141705,
      "internal_node_id": "0.0-3.0-3.0-0.0",
      "responseType": "finish",
      "participantID": "4z1moyalp76gkm00whzlw7x0xbdp42l4",
      "black_problems": [
        "AYUGHNT"
      ],
      "blue_problems": [
        "AYKAWLJ"
      ],
      "blue_solution_time": 16
    },
    {
      "rt": 6344,
      "stimulus": "<center><p>Now the <b>black</b> anagram will be shown to you.</p> <p>If you are not able to solve the anagram in <b>2 minutes</b>, you will be taken to the next screen.</p> <p>Press 'v' to view the anagram. </p></center>",
      "key_press": 86,
      "trial_type": "html-keyboard-response",
      "trial_index": 8,
      "time_elapsed": 148052,
      "internal_node_id": "0.0-3.1-0.1",
      "responseType": "finish",
      "participantID": "4z1moyalp76gkm00whzlw7x0xbdp42l4",
      "black_problems": [
        "AYUGHNT"
      ],
      "blue_problems": [
        "AYKAWLJ"
      ],
      "blue_solution_time": 16
    },
    {
      "rt": 4940,
      "responses": "{\"Q0\":\"naughty\"}",
      "trial_type": "survey-text",
      "trial_index": 9,
      "time_elapsed": 152992,
      "internal_node_id": "0.0-3.1-1.1",
      "responseType": "finish",
      "participantID": "4z1moyalp76gkm00whzlw7x0xbdp42l4",
      "black_problems": [
        "AYUGHNT"
      ],
      "blue_problems": [
        "AYKAWLJ"
      ],
      "blue_solution_time": 16
    },
    {
      "rt": 14064,
      "responses": "{\"Q0\":4}",
      "trial_type": "survey-likert",
      "trial_index": 10,
      "time_elapsed": 167057,
      "internal_node_id": "0.0-3.1-3.1-0.1",
      "responseType": "finish",
      "participantID": "4z1moyalp76gkm00whzlw7x0xbdp42l4",
      "black_problems": [
        "AYUGHNT"
      ],
      "blue_problems": [
        "AYKAWLJ"
      ],
      "blue_solution_time": 16
    }
  ],
  "__v": 0
},{
  "_id": {
    "$oid": "62abd4c38ea66300041ff251"
  },
  "data": {
    "responseType": "start",
    "participantID": "ec21josvt9qp29u88u6olaq1wb5me4v6",
    "black_problems": [
      "LUBMEJD"
    ],
    "blue_problems": [
      "AYUGHNT"
    ],
    "blue_solution_time": 18
  },
  "__v": 0
},{
  "_id": {
    "$oid": "62abd4c48ea66300041ff252"
  },
  "data": {
    "responseType": "start",
    "participantID": "2sbwj5jgzo84ggcdwg9gl44812zwtwrm",
    "black_problems": [
      "AYUGHNT"
    ],
    "blue_problems": [
      "LUBMEJD"
    ],
    "blue_solution_time": 13
  },
  "__v": 0
},{
  "_id": {
    "$oid": "62abd4c98ea66300041ff253"
  },
  "data": {
    "responseType": "start",
    "participantID": "3tvbtjyjlk3bnbrj7wkpv5xes88elc8v",
    "black_problems": [
      "AYKAWLJ"
    ],
    "blue_problems": [
      "AYUGHNT"
    ],
    "blue_solution_time": 10
  },
  "__v": 0
},{
  "_id": {
    "$oid": "62abd4cc8ea66300041ff254"
  },
  "data": [
    {
      "rt": 13457,
      "responses": "{\"Q0\":\" I consent to participate\"}",
      "trial_type": "survey-multi-choice",
      "trial_index": 0,
      "time_elapsed": 13484,
      "internal_node_id": "0.0-0.0",
      "responseType": "finish",
      "participantID": "z0xtonqvh0ryoeovo8m4oao2h1bupq93",
      "black_problems": [
        "AXPLINE"
      ],
      "blue_problems": [
        "CLAIGER"
      ],
      "blue_solution_time": 14
    },
    {
      "trial_type": "call-function",
      "trial_index": 1,
      "time_elapsed": 13498,
      "internal_node_id": "0.0-1.0",
      "responseType": "finish",
      "participantID": "z0xtonqvh0ryoeovo8m4oao2h1bupq93",
      "black_problems": [
        "AXPLINE"
      ],
      "blue_problems": [
        "CLAIGER"
      ],
      "blue_solution_time": 14
    },
    {
      "view_history": "[{\"page_index\":0,\"viewing_time\":20492},{\"page_index\":1,\"viewing_time\":13015},{\"page_index\":2,\"viewing_time\":6816}]",
      "rt": 40326,
      "trial_type": "instructions",
      "trial_index": 2,
      "time_elapsed": 53825,
      "internal_node_id": "0.0-2.0-0.0",
      "responseType": "finish",
      "participantID": "z0xtonqvh0ryoeovo8m4oao2h1bupq93",
      "black_problems": [
        "AXPLINE"
      ],
      "blue_problems": [
        "CLAIGER"
      ],
      "blue_solution_time": 14
    },
    {
      "rt": 10170,
      "responses": "{\"Q0\":\"The answer to the blue colored anagram will be shown after 2 minutes.\"}",
      "trial_type": "survey-multi-choice",
      "trial_index": 3,
      "time_elapsed": 64001,
      "internal_node_id": "0.0-2.0-1.0",
      "responseType": "finish",
      "participantID": "z0xtonqvh0ryoeovo8m4oao2h1bupq93",
      "black_problems": [
        "AXPLINE"
      ],
      "blue_problems": [
        "CLAIGER"
      ],
      "blue_solution_time": 14
    },
    {
      "rt": 9788,
      "stimulus": "<center><p>Now the <b>black</b> anagram will be shown to you.</p> <p>If you are not able to solve the anagram in <b>2 minutes</b>, you will be taken to the next screen.</p> <p>Press 'v' to view the anagram. </p></center>",
      "key_press": 86,
      "trial_type": "html-keyboard-response",
      "trial_index": 4,
      "time_elapsed": 73795,
      "internal_node_id": "0.0-3.0-0.0",
      "responseType": "finish",
      "participantID": "z0xtonqvh0ryoeovo8m4oao2h1bupq93",
      "black_problems": [
        "AXPLINE"
      ],
      "blue_problems": [
        "CLAIGER"
      ],
      "blue_solution_time": 14
    },
    {
      "rt": 120012,
      "responses": "{\"Q0\":\"pixelna\"}",
      "trial_type": "survey-text",
      "trial_index": 5,
      "time_elapsed": 193814,
      "internal_node_id": "0.0-3.0-1.0",
      "responseType": "finish",
      "participantID": "z0xtonqvh0ryoeovo8m4oao2h1bupq93",
      "black_problems": [
        "AXPLINE"
      ],
      "blue_problems": [
        "CLAIGER"
      ],
      "blue_solution_time": 14
    },
    {
      "rt": 11998,
      "responses": "{\"Q0\":0}",
      "trial_type": "survey-likert",
      "trial_index": 6,
      "time_elapsed": 205820,
      "internal_node_id": "0.0-3.0-3.0-0.0",
      "responseType": "finish",
      "participantID": "z0xtonqvh0ryoeovo8m4oao2h1bupq93",
      "black_problems": [
        "AXPLINE"
      ],
      "blue_problems": [
        "CLAIGER"
      ],
      "blue_solution_time": 14
    },
    {
      "rt": 2671,
      "stimulus": "<center><p>Now the <b style=\"color:#069\">blue</b> anagram will be shown to you.</p> <p>If you are not able to solve the anagram in <b>2 minutes</b>, the answer will be shown to you.</p> <p>Press 'v' to view the anagram. </p></center>",
      "key_press": 86,
      "trial_type": "html-keyboard-response",
      "trial_index": 7,
      "time_elapsed": 208500,
      "internal_node_id": "0.0-3.1-0.1",
      "responseType": "finish",
      "participantID": "z0xtonqvh0ryoeovo8m4oao2h1bupq93",
      "black_problems": [
        "AXPLINE"
      ],
      "blue_problems": [
        "CLAIGER"
      ],
      "blue_solution_time": 14
    },
    {
      "rt": 14008,
      "responses": "{\"Q0\":\"\"}",
      "trial_type": "survey-text",
      "trial_index": 8,
      "time_elapsed": 222510,
      "internal_node_id": "0.0-3.1-1.1",
      "responseType": "finish",
      "participantID": "z0xtonqvh0ryoeovo8m4oao2h1bupq93",
      "black_problems": [
        "AXPLINE"
      ],
      "blue_problems": [
        "CLAIGER"
      ],
      "blue_solution_time": 14
    },
    {
      "rt": 5774,
      "stimulus": "<center>The answer is: <h2 style=\"color:#069\"><p>GLACIER</p></h2><br/><br/></center>",
      "button_pressed": "0",
      "trial_type": "html-button-response",
      "trial_index": 9,
      "time_elapsed": 228288,
      "internal_node_id": "0.0-3.1-2.1-0.1",
      "responseType": "finish",
      "participantID": "z0xtonqvh0ryoeovo8m4oao2h1bupq93",
      "black_problems": [
        "AXPLINE"
      ],
      "blue_problems": [
        "CLAIGER"
      ],
      "blue_solution_time": 14
    },
    {
      "rt": 2760,
      "responses": "{\"Q0\":0}",
      "trial_type": "survey-likert",
      "trial_index": 10,
      "time_elapsed": 231052,
      "internal_node_id": "0.0-3.1-3.1-0.1",
      "responseType": "finish",
      "participantID": "z0xtonqvh0ryoeovo8m4oao2h1bupq93",
      "black_problems": [
        "AXPLINE"
      ],
      "blue_problems": [
        "CLAIGER"
      ],
      "blue_solution_time": 14
    }
  ],
  "__v": 0
},{
  "_id": {
    "$oid": "62abd4cd8ea66300041ff255"
  },
  "data": [
    {
      "rt": 28072,
      "responses": "{\"Q0\":\" I consent to participate\"}",
      "trial_type": "survey-multi-choice",
      "trial_index": 0,
      "time_elapsed": 28231,
      "internal_node_id": "0.0-0.0",
      "responseType": "finish",
      "participantID": "80fpu15lnpwvgn635oat6403cp7b2w18",
      "black_problems": [
        "AALRYS"
      ],
      "blue_problems": [
        "AYUGHNT"
      ],
      "blue_solution_time": 18
    },
    {
      "trial_type": "call-function",
      "trial_index": 1,
      "time_elapsed": 28233,
      "internal_node_id": "0.0-1.0",
      "responseType": "finish",
      "participantID": "80fpu15lnpwvgn635oat6403cp7b2w18",
      "black_problems": [
        "AALRYS"
      ],
      "blue_problems": [
        "AYUGHNT"
      ],
      "blue_solution_time": 18
    },
