[{
  "_id": {
    "$oid": "62576be870675a0004e71161"
  },
  "data": {
    "responseType": "start",
    "participantID": "qm099m95y8e0ob1deqk1cssu3ccuh78l",
    "black_problems": [
      "LUBMEJD"
    ],
    "blue_problems": [
      "CAMHOMK"
    ],
    "blue_solution_time": 14
  },
  "__v": 0
},{
  "_id": {
    "$oid": "62576c1070675a0004e71162"
  },
  "data": {
    "responseType": "start",
    "participantID": "0txeow7lflkd1psvh0oa5qrxzmfy3lm2",
    "black_problems": [
      "AXPLINE"
    ],
    "blue_problems": [
      "AYKAWLJ"
    ],
    "blue_solution_time": 13
  },
  "__v": 0
},{
  "_id": {
    "$oid": "62576c5270675a0004e71163"
  },
  "data": {
    "responseType": "start",
    "participantID": "q1gbjq5s9kpc3vxwq67gg01b70nn9obk",
    "black_problems": [
      "AYKAWLJ"
    ],
    "blue_problems": [
      "AXPLINE"
    ],
    "blue_solution_time": 11
  },
  "__v": 0
},{
  "_id": {
    "$oid": "62576c5770675a0004e71164"
  },
  "data": [
    {
      "rt": 2641,
      "responses": "{\"Q0\":\" I consent to participate\"}",
      "trial_type": "survey-multi-choice",
      "trial_index": 0,
      "time_elapsed": 2820,
      "internal_node_id": "0.0-0.0",
      "responseType": "finish",
      "participantID": "qm099m95y8e0ob1deqk1cssu3ccuh78l",
      "black_problems": [
        "LUBMEJD"
      ],
      "blue_problems": [
        "CAMHOMK"
      ],
      "blue_solution_time": 14
    },
    {
      "trial_type": "call-function",
      "trial_index": 1,
      "time_elapsed": 2847,
      "internal_node_id": "0.0-1.0",
      "responseType": "finish",
      "participantID": "qm099m95y8e0ob1deqk1cssu3ccuh78l",
      "black_problems": [
        "LUBMEJD"
      ],
      "blue_problems": [
        "CAMHOMK"
      ],
      "blue_solution_time": 14
    },
    {
      "view_history": "[{\"page_index\":0,\"viewing_time\":7135},{\"page_index\":1,\"viewing_time\":9866},{\"page_index\":2,\"viewing_time\":6101}]",
      "rt": 23105,
      "trial_type": "instructions",
      "trial_index": 2,
      "time_elapsed": 25953,
      "internal_node_id": "0.0-2.0-0.0",
      "responseType": "finish",
      "participantID": "qm099m95y8e0ob1deqk1cssu3ccuh78l",
      "black_problems": [
        "LUBMEJD"
      ],
      "blue_problems": [
        "CAMHOMK"
      ],
      "blue_solution_time": 14
    },
    {
      "rt": 7059,
      "responses": "{\"Q0\":\"The answer to the blue colored anagram will be shown after 2 minutes.\"}",
      "trial_type": "survey-multi-choice",
      "trial_index": 3,
      "time_elapsed": 33023,
      "internal_node_id": "0.0-2.0-1.0",
      "responseType": "finish",
      "participantID": "qm099m95y8e0ob1deqk1cssu3ccuh78l",
      "black_problems": [
        "LUBMEJD"
      ],
      "blue_problems": [
        "CAMHOMK"
      ],
      "blue_solution_time": 14
    },
    {
      "rt": 3907,
      "stimulus": "<center><p>Now the <b style=\"color:#069\">blue</b> anagram will be shown to you.</p> <p>If you are not able to solve the anagram in <b>2 minutes</b>, the answer will be shown to you.</p> <p>Press 'v' to view the anagram. </p></center>",
      "key_press": 86,
      "trial_type": "html-keyboard-response",
      "trial_index": 4,
      "time_elapsed": 36958,
      "internal_node_id": "0.0-3.0-0.0",
      "responseType": "finish",
      "participantID": "qm099m95y8e0ob1deqk1cssu3ccuh78l",
      "black_problems": [
        "LUBMEJD"
      ],
      "blue_problems": [
        "CAMHOMK"
      ],
      "blue_solution_time": 14
    },
    {
      "rt": 14002,
      "responses": "{\"Q0\":\"hammo\"}",
      "trial_type": "survey-text",
      "trial_index": 5,
      "time_elapsed": 50972,
      "internal_node_id": "0.0-3.0-1.0",
      "responseType": "finish",
      "participantID": "qm099m95y8e0ob1deqk1cssu3ccuh78l",
      "black_problems": [
        "LUBMEJD"
      ],
      "blue_problems": [
        "CAMHOMK"
      ],
      "blue_solution_time": 14
    },
    {
      "rt": 3235,
      "stimulus": "<center>The answer is: <h2 style=\"color:#069\"><p>HAMMOCK</p></h2><br/><br/></center>",
      "button_pressed": "0",
      "trial_type": "html-button-response",
      "trial_index": 6,
      "time_elapsed": 54212,
      "internal_node_id": "0.0-3.0-2.0-0.0",
      "responseType": "finish",
      "participantID": "qm099m95y8e0ob1deqk1cssu3ccuh78l",
      "black_problems": [
        "LUBMEJD"
      ],
      "blue_problems": [
        "CAMHOMK"
      ],
      "blue_solution_time": 14
    },
    {
      "rt": 5730,
      "responses": "{\"Q0\":5}",
      "trial_type": "survey-likert",
      "trial_index": 7,
      "time_elapsed": 59949,
      "internal_node_id": "0.0-3.0-3.0-0.0",
      "responseType": "finish",
      "participantID": "qm099m95y8e0ob1deqk1cssu3ccuh78l",
      "black_problems": [
        "LUBMEJD"
      ],
      "blue_problems": [
        "CAMHOMK"
      ],
      "blue_solution_time": 14
    },
    {
      "rt": 2861,
      "stimulus": "<center><p>Now the <b>black</b> anagram will be shown to you.</p> <p>If you are not able to solve the anagram in <b>2 minutes</b>, you will be taken to the next screen.</p> <p>Press 'v' to view the anagram. </p></center>",
      "key_press": 86,
      "trial_type": "html-keyboard-response",
      "trial_index": 8,
      "time_elapsed": 62853,
      "internal_node_id": "0.0-3.1-0.1",
      "responseType": "finish",
      "participantID": "qm099m95y8e0ob1deqk1cssu3ccuh78l",
      "black_problems": [
        "LUBMEJD"
      ],
      "blue_problems": [
        "CAMHOMK"
      ],
      "blue_solution_time": 14
    },
    {
      "rt": 46499,
      "responses": "{\"Q0\":\"jumbled\"}",
      "trial_type": "survey-text",
      "trial_index": 9,
      "time_elapsed": 109356,
      "internal_node_id": "0.0-3.1-1.1",
      "responseType": "finish",
      "participantID": "qm099m95y8e0ob1deqk1cssu3ccuh78l",
      "black_problems": [
        "LUBMEJD"
      ],
      "blue_problems": [
        "CAMHOMK"
      ],
      "blue_solution_time": 14
    },
    {
      "rt": 3626,
      "responses": "{\"Q0\":4}",
      "trial_type": "survey-likert",
      "trial_index": 10,
      "time_elapsed": 112990,
      "internal_node_id": "0.0-3.1-3.1-0.1",
      "responseType": "finish",
      "participantID": "qm099m95y8e0ob1deqk1cssu3ccuh78l",
      "black_problems": [
        "LUBMEJD"
      ],
      "blue_problems": [
        "CAMHOMK"
      ],
      "blue_solution_time": 14
    }
  ],
  "__v": 0
},{
  "_id": {
    "$oid": "62576c6270675a0004e71165"
  },
  "data": {
    "responseType": "start",
    "participantID": "v3xyev33ycqcq5qcx1zlwhsfuuc8mu0m",
    "black_problems": [
      "AYUGNHT"
    ],
    "blue_problems": [
      "AXPLINE"
    ],
    "blue_solution_time": 20
  },
  "__v": 0
},{
  "_id": {
    "$oid": "62576c8470675a0004e71166"
  },
  "data": [
    {
      "rt": 128246,
      "responses": "{\"Q0\":\" I consent to participate\"}",
      "trial_type": "survey-multi-choice",
      "trial_index": 0,
      "time_elapsed": 128256,
      "internal_node_id": "0.0-0.0",
      "responseType": "finish",
      "participantID": "0txeow7lflkd1psvh0oa5qrxzmfy3lm2",
      "black_problems": [
        "AXPLINE"
      ],
      "blue_problems": [
        "AYKAWLJ"
      ],
      "blue_solution_time": 13
    },
    {
      "trial_type": "call-function",
      "trial_index": 1,
      "time_elapsed": 128259,
      "internal_node_id": "0.0-1.0",
      "responseType": "finish",
      "participantID": "0txeow7lflkd1psvh0oa5qrxzmfy3lm2",
      "black_problems": [
        "AXPLINE"
      ],
      "blue_problems": [
        "AYKAWLJ"
      ],
      "blue_solution_time": 13
    },
    {
      "view_history": "[{\"page_index\":0,\"viewing_time\":30783},{\"page_index\":1,\"viewing_time\":15460},{\"page_index\":2,\"viewing_time\":7880}]",
      "rt": 54124,
      "trial_type": "instructions",
      "trial_index": 2,
      "time_elapsed": 182383,
      "internal_node_id": "0.0-2.0-0.0",
      "responseType": "finish",
      "participantID": "0txeow7lflkd1psvh0oa5qrxzmfy3lm2",
      "black_problems": [
        "AXPLINE"
      ],
      "blue_problems": [
        "AYKAWLJ"
      ],
      "blue_solution_time": 13
    },
    {
      "rt": 9833,
      "responses": "{\"Q0\":\"The answer to the blue colored anagram will be shown after 2 minutes.\"}",
      "trial_type": "survey-multi-choice",
      "trial_index": 3,
      "time_elapsed": 192218,
      "internal_node_id": "0.0-2.0-1.0",
      "responseType": "finish",
      "participantID": "0txeow7lflkd1psvh0oa5qrxzmfy3lm2",
      "black_problems": [
        "AXPLINE"
      ],
      "blue_problems": [
        "AYKAWLJ"
      ],
      "blue_solution_time": 13
    },
    {
      "rt": 8606,
      "stimulus": "<center><p>Now the <b>black</b> anagram will be shown to you.</p> <p>If you are not able to solve the anagram in <b>2 minutes</b>, you will be taken to the next screen.</p> <p>Press 'v' to view the anagram. </p></center>",
      "key_press": 86,
      "trial_type": "html-keyboard-response",
      "trial_index": 4,
      "time_elapsed": 200825,
      "internal_node_id": "0.0-3.0-0.0",
      "responseType": "finish",
      "participantID": "0txeow7lflkd1psvh0oa5qrxzmfy3lm2",
      "black_problems": [
        "AXPLINE"
      ],
      "blue_problems": [
        "AYKAWLJ"
      ],
      "blue_solution_time": 13
    },
    {
      "rt": 17037,
      "responses": "{\"Q0\":\"Explain\"}",
      "trial_type": "survey-text",
      "trial_index": 5,
      "time_elapsed": 217863,
      "internal_node_id": "0.0-3.0-1.0",
      "responseType": "finish",
      "participantID": "0txeow7lflkd1psvh0oa5qrxzmfy3lm2",
      "black_problems": [
        "AXPLINE"
      ],
      "blue_problems": [
        "AYKAWLJ"
      ],
      "blue_solution_time": 13
    },
    {
      "rt": 9094,
      "responses": "{\"Q0\":6}",
      "trial_type": "survey-likert",
      "trial_index": 6,
      "time_elapsed": 226959,
      "internal_node_id": "0.0-3.0-3.0-0.0",
      "responseType": "finish",
      "participantID": "0txeow7lflkd1psvh0oa5qrxzmfy3lm2",
      "black_problems": [
        "AXPLINE"
      ],
      "blue_problems": [
        "AYKAWLJ"
      ],
      "blue_solution_time": 13
    },
    {
      "rt": 3367,
      "stimulus": "<center><p>Now the <b style=\"color:#069\">blue</b> anagram will be shown to you.</p> <p>If you are not able to solve the anagram in <b>2 minutes</b>, the answer will be shown to you.</p> <p>Press 'v' to view the anagram. </p></center>",
      "key_press": 86,
      "trial_type": "html-keyboard-response",
      "trial_index": 7,
      "time_elapsed": 230332,
      "internal_node_id": "0.0-3.1-0.1",
      "responseType": "finish",
      "participantID": "0txeow7lflkd1psvh0oa5qrxzmfy3lm2",
      "black_problems": [
        "AXPLINE"
      ],
      "blue_problems": [
        "AYKAWLJ"
      ],
      "blue_solution_time": 13
    },
    {
      "rt": 10006,
      "responses": "{\"Q0\":\"JAYWALK\"}",
      "trial_type": "survey-text",
      "trial_index": 8,
      "time_elapsed": 240339,
      "internal_node_id": "0.0-3.1-1.1",
      "responseType": "finish",
      "participantID": "0txeow7lflkd1psvh0oa5qrxzmfy3lm2",
      "black_problems": [
        "AXPLINE"
      ],
      "blue_problems": [
        "AYKAWLJ"
      ],
      "blue_solution_time": 13
    },
    {
      "rt": 1451,
      "stimulus": "<center>The answer is: <h2 style=\"color:#069\"><p>JAYWALK</p></h2><br/><br/></center>",
      "button_pressed": "0",
      "trial_type": "html-button-response",
      "trial_index": 9,
      "time_elapsed": 241792,
      "internal_node_id": "0.0-3.1-2.1-0.1",
      "responseType": "finish",
      "participantID": "0txeow7lflkd1psvh0oa5qrxzmfy3lm2",
      "black_problems": [
        "AXPLINE"
      ],
      "blue_problems": [
        "AYKAWLJ"
      ],
      "blue_solution_time": 13
    },
    {
      "rt": 2541,
      "responses": "{\"Q0\":6}",
      "trial_type": "survey-likert",
      "trial_index": 10,
      "time_elapsed": 244334,
      "internal_node_id": "0.0-3.1-3.1-0.1",
      "responseType": "finish",
      "participantID": "0txeow7lflkd1psvh0oa5qrxzmfy3lm2",
      "black_problems": [
        "AXPLINE"
      ],
      "blue_problems": [
        "AYKAWLJ"
      ],
      "blue_solution_time": 13
    }
  ],
  "__v": 0
},{
  "_id": {
    "$oid": "62576cf970675a0004e71167"
  },
  "data": {
    "responseType": "start",
    "participantID": "zsogmgwdpruul1pryn7vmhppctbc55pn",
    "black_problems": [
      "AYUGNHT"
    ],
    "blue_problems": [
      "AYKAWLJ"
    ],
    "blue_solution_time": 15
  },
  "__v": 0
},{
  "_id": {
    "$oid": "62576d0e70675a0004e71168"
  },
  "data": [
    {
      "rt": 48956,
      "responses": "{\"Q0\":\" I consent to participate\"}",
      "trial_type": "survey-multi-choice",
      "trial_index": 0,
      "time_elapsed": 48973,
      "internal_node_id": "0.0-0.0",
      "responseType": "finish",
      "participantID": "q1gbjq5s9kpc3vxwq67gg01b70nn9obk",
      "black_problems": [
        "AYKAWLJ"
      ],
      "blue_problems": [
        "AXPLINE"
      ],
      "blue_solution_time": 11
    },
    {
      "trial_type": "call-function",
      "trial_index": 1,
      "time_elapsed": 48984,
      "internal_node_id": "0.0-1.0",
      "responseType": "finish",
      "participantID": "q1gbjq5s9kpc3vxwq67gg01b70nn9obk",
      "black_problems": [
        "AYKAWLJ"
      ],
      "blue_problems": [
        "AXPLINE"
      ],
      "blue_solution_time": 11
    },
    {
      "view_history": "[{\"page_index\":0,\"viewing_time\":75808},{\"page_index\":1,\"viewing_time\":23675},{\"page_index\":2,\"viewing_time\":19189}]",
      "rt": 118674,
      "trial_type": "instructions",
      "trial_index": 2,
      "time_elapsed": 167659,
      "internal_node_id": "0.0-2.0-0.0",
      "responseType": "finish",
      "participantID": "q1gbjq5s9kpc3vxwq67gg01b70nn9obk",
      "black_problems": [
        "AYKAWLJ"
      ],
      "blue_problems": [
        "AXPLINE"
      ],
      "blue_solution_time": 11
    },
    {
      "rt": 13622,
      "responses": "{\"Q0\":\"The answer to the blue colored anagram will be shown after 2 minutes.\"}",
      "trial_type": "survey-multi-choice",
      "trial_index": 3,
      "time_elapsed": 181286,
      "internal_node_id": "0.0-2.0-1.0",
      "responseType": "finish",
      "participantID": "q1gbjq5s9kpc3vxwq67gg01b70nn9obk",
      "black_problems": [
        "AYKAWLJ"
      ],
      "blue_problems": [
        "AXPLINE"
      ],
      "blue_solution_time": 11
    },
    {
      "rt": 7023,
      "stimulus": "<center><p>Now the <b>black</b> anagram will be shown to you.</p> <p>If you are not able to solve the anagram in <b>2 minutes</b>, you will be taken to the next screen.</p> <p>Press 'v' to view the anagram. </p></center>",
      "key_press": 86,
      "trial_type": "html-keyboard-response",
      "trial_index": 4,
      "time_elapsed": 188316,
      "internal_node_id": "0.0-3.0-0.0",
      "responseType": "finish",
      "participantID": "q1gbjq5s9kpc3vxwq67gg01b70nn9obk",
      "black_problems": [
        "AYKAWLJ"
      ],
      "blue_problems": [
        "AXPLINE"
      ],
      "blue_solution_time": 11
    },
    {
      "rt": 15390,
      "responses": "{\"Q0\":\"jaywalk\"}",
      "trial_type": "survey-text",
      "trial_index": 5,
      "time_elapsed": 203710,
      "internal_node_id": "0.0-3.0-1.0",
      "responseType": "finish",
      "participantID": "q1gbjq5s9kpc3vxwq67gg01b70nn9obk",
      "black_problems": [
        "AYKAWLJ"
      ],
      "blue_problems": [
        "AXPLINE"
      ],
      "blue_solution_time": 11
    },
    {
      "rt": 10567,
      "responses": "{\"Q0\":4}",
      "trial_type": "survey-likert",
      "trial_index": 6,
      "time_elapsed": 214281,
      "internal_node_id": "0.0-3.0-3.0-0.0",
      "responseType": "finish",
      "participantID": "q1gbjq5s9kpc3vxwq67gg01b70nn9obk",
      "black_problems": [
        "AYKAWLJ"
      ],
      "blue_problems": [
        "AXPLINE"
      ],
      "blue_solution_time": 11
    },
    {
      "rt": 4449,
      "stimulus": "<center><p>Now the <b style=\"color:#069\">blue</b> anagram will be shown to you.</p> <p>If you are not able to solve the anagram in <b>2 minutes</b>, the answer will be shown to you.</p> <p>Press 'v' to view the anagram. </p></center>",
      "key_press": 86,
      "trial_type": "html-keyboard-response",
      "trial_index": 7,
      "time_elapsed": 218770,
      "internal_node_id": "0.0-3.1-0.1",
      "responseType": "finish",
      "participantID": "q1gbjq5s9kpc3vxwq67gg01b70nn9obk",
      "black_problems": [
        "AYKAWLJ"
      ],
      "blue_problems": [
        "AXPLINE"
      ],
      "blue_solution_time": 11
    },
    {
      "rt": 11006,
      "responses": "{\"Q0\":\"\"}",
      "trial_type": "survey-text",
      "trial_index": 8,
      "time_elapsed": 229781,
      "internal_node_id": "0.0-3.1-1.1",
      "responseType": "finish",
      "participantID": "q1gbjq5s9kpc3vxwq67gg01b70nn9obk",
      "black_problems": [
        "AYKAWLJ"
      ],
      "blue_problems": [
        "AXPLINE"
      ],
      "blue_solution_time": 11
    },
    {
      "rt": 2227,
      "stimulus": "<center>The answer is: <h2 style=\"color:#069\"><p>EXPLAIN</p></h2><br/><br/></center>",
      "button_pressed": "0",
      "trial_type": "html-button-response",
      "trial_index": 9,
      "time_elapsed": 232013,
      "internal_node_id": "0.0-3.1-2.1-0.1",
      "responseType": "finish",
      "participantID": "q1gbjq5s9kpc3vxwq67gg01b70nn9obk",
      "black_problems": [
        "AYKAWLJ"
      ],
      "blue_problems": [
        "AXPLINE"
      ],
      "blue_solution_time": 11
    },
    {
      "rt": 5013,
      "responses": "{\"Q0\":0}",
      "trial_type": "survey-likert",
      "trial_index": 10,
      "time_elapsed": 237029,
      "internal_node_id": "0.0-3.1-3.1-0.1",
      "responseType": "finish",
      "participantID": "q1gbjq5s9kpc3vxwq67gg01b70nn9obk",
      "black_problems": [
        "AYKAWLJ"
      ],
      "blue_problems": [
        "AXPLINE"
      ],
      "blue_solution_time": 11
    }
  ],
  "__v": 0
},{
  "_id": {
    "$oid": "62576d3370675a0004e71169"
  },
  "data": {
    "responseType": "start",
    "participantID": "zcryqdnmwpx9bnjlux9y8fjpmp6o0c94",
    "black_problems": [
      "AXPLINE"
    ],
    "blue_problems": [
      "AYKAWLJ"
    ],
    "blue_solution_time": 14
  },
  "__v": 0
},{
  "_id": {
    "$oid": "62576d4370675a0004e7116a"
  },
  "data": [
    {
      "rt": 5284,
      "responses": "{\"Q0\":\" I consent to participate\"}",
      "trial_type": "survey-multi-choice",
      "trial_index": 0,
      "time_elapsed": 5288,
      "internal_node_id": "0.0-0.0",
      "responseType": "finish",
      "participantID": "v3xyev33ycqcq5qcx1zlwhsfuuc8mu0m",
      "black_problems": [
        "AYUGNHT"
      ],
      "blue_problems": [
        "AXPLINE"
      ],
      "blue_solution_time": 20
    },
    {
      "trial_type": "call-function",
      "trial_index": 1,
      "time_elapsed": 5291,
      "internal_node_id": "0.0-1.0",
      "responseType": "finish",
      "participantID": "v3xyev33ycqcq5qcx1zlwhsfuuc8mu0m",
      "black_problems": [
        "AYUGNHT"
      ],
      "blue_problems": [
        "AXPLINE"
      ],
      "blue_solution_time": 20
    },
    {
      "view_history": "[{\"page_index\":0,\"viewing_time\":10541},{\"page_index\":1,\"viewing_time\":18352},{\"page_index\":2,\"viewing_time\":6925}]",
      "rt": 35819,
      "trial_type": "instructions",
      "trial_index": 2,
      "time_elapsed": 41111,
      "internal_node_id": "0.0-2.0-0.0",
      "responseType": "finish",
      "participantID": "v3xyev33ycqcq5qcx1zlwhsfuuc8mu0m",
      "black_problems": [
        "AYUGNHT"
      ],
      "blue_problems": [
        "AXPLINE"
      ],
      "blue_solution_time": 20
    },
    {
      "rt": 15494,
      "responses": "{\"Q0\":\"The answer to the blue colored anagram will be shown after 2 minutes.\"}",
      "trial_type": "survey-multi-choice",
      "trial_index": 3,
      "time_elapsed": 56608,
      "internal_node_id": "0.0-2.0-1.0",
      "responseType": "finish",
      "participantID": "v3xyev33ycqcq5qcx1zlwhsfuuc8mu0m",
      "black_problems": [
        "AYUGNHT"
      ],
      "blue_problems": [
        "AXPLINE"
      ],
      "blue_solution_time": 20
    },
    {
      "rt": 6023,
      "stimulus": "<center><p>Now the <b>black</b> anagram will be shown to you.</p> <p>If you are not able to solve the anagram in <b>2 minutes</b>, you will be taken to the next screen.</p> <p>Press 'v' to view the anagram. </p></center>",
      "key_press": 86,
      "trial_type": "html-keyboard-response",
      "trial_index": 4,
      "time_elapsed": 62633,
      "internal_node_id": "0.0-3.0-0.0",
      "responseType": "finish",
      "participantID": "v3xyev33ycqcq5qcx1zlwhsfuuc8mu0m",
      "black_problems": [
        "AYUGNHT"
      ],
      "blue_problems": [
        "AXPLINE"
      ],
      "blue_solution_time": 20
    },
    {
      "rt": 120012,
      "responses": "{\"Q0\":\"anythug\"}",
      "trial_type": "survey-text",
      "trial_index": 5,
      "time_elapsed": 182651,
      "internal_node_id": "0.0-3.0-1.0",
      "responseType": "finish",
      "participantID": "v3xyev33ycqcq5qcx1zlwhsfuuc8mu0m",
      "black_problems": [
        "AYUGNHT"
      ],
      "blue_problems": [
        "AXPLINE"
      ],
      "blue_solution_time": 20
    },
    {
      "rt": 13559,
      "responses": "{\"Q0\":0}",
      "trial_type": "survey-likert",
      "trial_index": 6,
      "time_elapsed": 196211,
      "internal_node_id": "0.0-3.0-3.0-0.0",
      "responseType": "finish",
      "participantID": "v3xyev33ycqcq5qcx1zlwhsfuuc8mu0m",
      "black_problems": [
        "AYUGNHT"
      ],
      "blue_problems": [
        "AXPLINE"
      ],
      "blue_solution_time": 20
    },
    {
      "rt": 4425,
      "stimulus": "<center><p>Now the <b style=\"color:#069\">blue</b> anagram will be shown to you.</p> <p>If you are not able to solve the anagram in <b>2 minutes</b>, the answer will be shown to you.</p> <p>Press 'v' to view the anagram. </p></center>",
      "key_press": 86,
      "trial_type": "html-keyboard-response",
      "trial_index": 7,
      "time_elapsed": 200652,
      "internal_node_id": "0.0-3.1-0.1",
      "responseType": "finish",
      "participantID": "v3xyev33ycqcq5qcx1zlwhsfuuc8mu0m",
      "black_problems": [
        "AYUGNHT"
      ],
      "blue_problems": [
        "AXPLINE"
      ],
      "blue_solution_time": 20
    },
    {
      "rt": 20008,
      "responses": "{\"Q0\":\"\"}",
      "trial_type": "survey-text",
      "trial_index": 8,
      "time_elapsed": 220663,
      "internal_node_id": "0.0-3.1-1.1",
      "responseType": "finish",
      "participantID": "v3xyev33ycqcq5qcx1zlwhsfuuc8mu0m",
      "black_problems": [
        "AYUGNHT"
      ],
      "blue_problems": [
        "AXPLINE"
      ],
      "blue_solution_time": 20
    },
    {
      "rt": 3436,
      "stimulus": "<center>The answer is: <h2 style=\"color:#069\"><p>EXPLAIN</p></h2><br/><br/></center>",
      "button_pressed": "0",
      "trial_type": "html-button-response",
      "trial_index": 9,
      "time_elapsed": 224102,
      "internal_node_id": "0.0-3.1-2.1-0.1",
      "responseType": "finish",
      "participantID": "v3xyev33ycqcq5qcx1zlwhsfuuc8mu0m",
      "black_problems": [
        "AYUGNHT"
      ],
      "blue_problems": [
        "AXPLINE"
      ],
      "blue_solution_time": 20
    },
    {
      "rt": 6556,
      "responses": "{\"Q0\":5}",
      "trial_type": "survey-likert",
      "trial_index": 10,
      "time_elapsed": 230659,
      "internal_node_id": "0.0-3.1-3.1-0.1",
      "responseType": "finish",
      "participantID": "v3xyev33ycqcq5qcx1zlwhsfuuc8mu0m",
      "black_problems": [
        "AYUGNHT"
      ],
      "blue_problems": [
        "AXPLINE"
      ],
      "blue_solution_time": 20
    }
  ],
  "__v": 0
},{
  "_id": {
    "$oid": "62576d6c70675a0004e7116b"
  },
  "data": {
    "responseType": "start",
    "participantID": "ta1n1wpotchmtozu2d6kw50qbtpfmkul",
    "black_problems": [
      "AXPLINE"
    ],
    "blue_problems": [
      "AYKAWLJ"
    ],
    "blue_solution_time": 10
  },
  "__v": 0
},{
  "_id": {
    "$oid": "62576d9470675a0004e7116c"
  },
  "data": {
    "responseType": "start",
    "participantID": "q47ml4tb1lu4jqhzndb2qpq8sfrhtxg8",
    "black_problems": [
      "CAMHOMK"
    ],
    "blue_problems": [
      "AYUGNHT"
    ],
    "blue_solution_time": 20
  },
  "__v": 0
},{
  "_id": {
    "$oid": "62576daf70675a0004e7116d"
  },
  "data": [
    {
      "rt": 7107,
      "responses": "{\"Q0\":\" I consent to participate\"}",
      "trial_type": "survey-multi-choice",
      "trial_index": 0,
      "time_elapsed": 7122,
      "internal_node_id": "0.0-0.0",
      "responseType": "finish",
      "participantID": "zsogmgwdpruul1pryn7vmhppctbc55pn",
      "black_problems": [
        "AYUGNHT"
      ],
      "blue_problems": [
        "AYKAWLJ"
      ],
      "blue_solution_time": 15
    },
    {
      "trial_type": "call-function",
      "trial_index": 1,
      "time_elapsed": 7126,
      "internal_node_id": "0.0-1.0",
      "responseType": "finish",
      "participantID": "zsogmgwdpruul1pryn7vmhppctbc55pn",
      "black_problems": [
        "AYUGNHT"
      ],
      "blue_problems": [
        "AYKAWLJ"
      ],
      "blue_solution_time": 15
    },
    {
      "view_history": "[{\"page_index\":0,\"viewing_time\":9849},{\"page_index\":1,\"viewing_time\":9756},{\"page_index\":2,\"viewing_time\":5338}]",
      "rt": 24944,
      "trial_type": "instructions",
      "trial_index": 2,
      "time_elapsed": 32070,
      "internal_node_id": "0.0-2.0-0.0",
      "responseType": "finish",
      "participantID": "zsogmgwdpruul1pryn7vmhppctbc55pn",
      "black_problems": [
        "AYUGNHT"
      ],
      "blue_problems": [
        "AYKAWLJ"
      ],
      "blue_solution_time": 15
    },
    {
      "rt": 5554,
      "responses": "{\"Q0\":\"The answer to the blue colored anagram will be shown after 2 minutes.\"}",
      "trial_type": "survey-multi-choice",
      "trial_index": 3,
      "time_elapsed": 37625,
      "internal_node_id": "0.0-2.0-1.0",
      "responseType": "finish",
      "participantID": "zsogmgwdpruul1pryn7vmhppctbc55pn",
      "black_problems": [
        "AYUGNHT"
      ],
      "blue_problems": [
        "AYKAWLJ"
      ],
      "blue_solution_time": 15
    },
    {
      "rt": 4181,
      "stimulus": "<center><p>Now the <b style=\"color:#069\">blue</b> anagram will be shown to you.</p> <p>If you are not able to solve the anagram in <b>2 minutes</b>, the answer will be shown to you.</p> <p>Press 'v' to view the anagram. </p></center>",
      "key_press": 86,
      "trial_type": "html-keyboard-response",
      "trial_index": 4,
      "time_elapsed": 41809,
      "internal_node_id": "0.0-3.0-0.0",
      "responseType": "finish",
      "participantID": "zsogmgwdpruul1pryn7vmhppctbc55pn",
      "black_problems": [
        "AYUGNHT"
      ],
      "blue_problems": [
        "AYKAWLJ"
      ],
      "blue_solution_time": 15
    },
    {
      "rt": 14537,
      "responses": "{\"Q0\":\"JAYWALK\"}",
      "trial_type": "survey-text",
      "trial_index": 5,
      "time_elapsed": 56347,
      "internal_node_id": "0.0-3.0-1.0",
      "responseType": "finish",
      "participantID": "zsogmgwdpruul1pryn7vmhppctbc55pn",
      "black_problems": [
        "AYUGNHT"
      ],
      "blue_problems": [
        "AYKAWLJ"
      ],
      "blue_solution_time": 15
    },
    {
      "rt": 918,
      "stimulus": "<center>The answer is: <h2 style=\"color:#069\"><p>JAYWALK</p></h2><br/><br/></center>",
      "button_pressed": "0",
      "trial_type": "html-button-response",
      "trial_index": 6,
      "time_elapsed": 57266,
      "internal_node_id": "0.0-3.0-2.0-0.0",
      "responseType": "finish",
      "participantID": "zsogmgwdpruul1pryn7vmhppctbc55pn",
      "black_problems": [
        "AYUGNHT"
      ],
      "blue_problems": [
        "AYKAWLJ"
      ],
      "blue_solution_time": 15
    },
    {
      "rt": 4821,
      "responses": "{\"Q0\":5}",
      "trial_type": "survey-likert",
      "trial_index": 7,
      "time_elapsed": 62089,
      "internal_node_id": "0.0-3.0-3.0-0.0",
      "responseType": "finish",
      "participantID": "zsogmgwdpruul1pryn7vmhppctbc55pn",
      "black_problems": [
        "AYUGNHT"
      ],
      "blue_problems": [
        "AYKAWLJ"
      ],
      "blue_solution_time": 15
    },
    {
      "rt": 3837,
      "stimulus": "<center><p>Now the <b>black</b> anagram will be shown to you.</p> <p>If you are not able to solve the anagram in <b>2 minutes</b>, you will be taken to the next screen.</p> <p>Press 'v' to view the anagram. </p></center>",
      "key_press": 86,
      "trial_type": "html-keyboard-response",
      "trial_index": 8,
      "time_elapsed": 65936,
      "internal_node_id": "0.0-3.1-0.1",
      "responseType": "finish",
      "participantID": "zsogmgwdpruul1pryn7vmhppctbc55pn",
      "black_problems": [
        "AYUGNHT"
      ],
      "blue_problems": [
        "AYKAWLJ"
      ],
      "blue_solution_time": 15
    },
    {
      "rt": 120012,
      "responses": "{\"Q0\":\"\"}",
      "trial_type": "survey-text",
      "trial_index": 9,
      "time_elapsed": 185950,
      "internal_node_id": "0.0-3.1-1.1",
      "responseType": "finish",
      "participantID": "zsogmgwdpruul1pryn7vmhppctbc55pn",
      "black_problems": [
        "AYUGNHT"
      ],
      "blue_problems": [
        "AYKAWLJ"
      ],
      "blue_solution_time": 15
    },
    {
      "rt": 3066,
      "responses": "{\"Q0\":0}",
      "trial_type": "survey-likert",
      "trial_index": 10,
      "time_elapsed": 189017,
      "internal_node_id": "0.0-3.1-3.1-0.1",
      "responseType": "finish",
      "participantID": "zsogmgwdpruul1pryn7vmhppctbc55pn",
      "black_problems": [
        "AYUGNHT"
      ],
      "blue_problems": [
        "AYKAWLJ"
      ],
      "blue_solution_time": 15
    }
  ],
  "__v": 0
},{
  "_id": {
    "$oid": "62576db570675a0004e7116e"
  },
  "data": {
    "responseType": "start",
    "participantID": "so3etes21sj8ejz2aqa9rde2yj9qwsjb",
    "black_problems": [
      "CAMHOMK"
    ],
    "blue_problems": [
      "AYKAWLJ"
    ],
    "blue_solution_time": 20
  },
  "__v": 0
},{
  "_id": {
    "$oid": "62576db770675a0004e7116f"
  },
  "data": {
    "responseType": "start",
    "participantID": "zzo5kzkj0eytvluudu3c99fqekkk3omz",
    "black_problems": [
      "CAMHOMK"
    ],
    "blue_problems": [
      "AXPLINE"
    ],
    "blue_solution_time": 15
  },
  "__v": 0
},{
  "_id": {
    "$oid": "62576dc170675a0004e71170"
  },
  "data": [
    {
      "rt": 3583,
      "responses": "{\"Q0\":\" I consent to participate\"}",
      "trial_type": "survey-multi-choice",
      "trial_index": 0,
      "time_elapsed": 3589,
      "internal_node_id": "0.0-0.0",
      "responseType": "finish",
      "participantID": "ta1n1wpotchmtozu2d6kw50qbtpfmkul",
      "black_problems": [
        "AXPLINE"
      ],
      "blue_problems": [
        "AYKAWLJ"
      ],
      "blue_solution_time": 10
    },
    {
      "trial_type": "call-function",
      "trial_index": 1,
      "time_elapsed": 3593,
      "internal_node_id": "0.0-1.0",
      "responseType": "finish",
      "participantID": "ta1n1wpotchmtozu2d6kw50qbtpfmkul",
      "black_problems": [
        "AXPLINE"
      ],
      "blue_problems": [
        "AYKAWLJ"
      ],
      "blue_solution_time": 10
    },
    {
      "view_history": "[{\"page_index\":0,\"viewing_time\":7867},{\"page_index\":1,\"viewing_time\":10446},{\"page_index\":2,\"viewing_time\":7616}]",
      "rt": 25930,
      "trial_type": "instructions",
      "trial_index": 2,
      "time_elapsed": 29523,
      "internal_node_id": "0.0-2.0-0.0",
      "responseType": "finish",
      "participantID": "ta1n1wpotchmtozu2d6kw50qbtpfmkul",
      "black_problems": [
        "AXPLINE"
      ],
      "blue_problems": [
        "AYKAWLJ"
      ],
      "blue_solution_time": 10
    },
    {
      "rt": 9195,
      "responses": "{\"Q0\":\"The answer to the blue colored anagram will be shown after 2 minutes.\"}",
      "trial_type": "survey-multi-choice",
      "trial_index": 3,
      "time_elapsed": 38720,
      "internal_node_id": "0.0-2.0-1.0",
      "responseType": "finish",
      "participantID": "ta1n1wpotchmtozu2d6kw50qbtpfmkul",
      "black_problems": [
        "AXPLINE"
      ],
      "blue_problems": [
        "AYKAWLJ"
      ],
      "blue_solution_time": 10
    },
    {
      "rt": 3314,
      "stimulus": "<center><p>Now the <b>black</b> anagram will be shown to you.</p> <p>If you are not able to solve the anagram in <b>2 minutes</b>, you will be taken to the next screen.</p> <p>Press 'v' to view the anagram. </p></center>",
      "key_press": 86,
      "trial_type": "html-keyboard-response",
      "trial_index": 4,
      "time_elapsed": 42037,
      "internal_node_id": "0.0-3.0-0.0",
      "responseType": "finish",
      "participantID": "ta1n1wpotchmtozu2d6kw50qbtpfmkul",
      "black_problems": [
        "AXPLINE"
      ],
      "blue_problems": [
        "AYKAWLJ"
      ],
      "blue_solution_time": 10
    },
    {
      "rt": 17642,
      "responses": "{\"Q0\":\"Explain\"}",
      "trial_type": "survey-text",
      "trial_index": 5,
      "time_elapsed": 59680,
      "internal_node_id": "0.0-3.0-1.0",
      "responseType": "finish",
      "participantID": "ta1n1wpotchmtozu2d6kw50qbtpfmkul",
      "black_problems": [
        "AXPLINE"
      ],
      "blue_problems": [
        "AYKAWLJ"
      ],
      "blue_solution_time": 10
    },
    {
      "rt": 7861,
      "responses": "{\"Q0\":4}",
      "trial_type": "survey-likert",
      "trial_index": 6,
      "time_elapsed": 67542,
      "internal_node_id": "0.0-3.0-3.0-0.0",
      "responseType": "finish",
      "participantID": "ta1n1wpotchmtozu2d6kw50qbtpfmkul",
      "black_problems": [
        "AXPLINE"
      ],
      "blue_problems": [
        "AYKAWLJ"
      ],
      "blue_solution_time": 10
    },
    {
      "rt": 1859,
      "stimulus": "<center><p>Now the <b style=\"color:#069\">blue</b> anagram will be shown to you.</p> <p>If you are not able to solve the anagram in <b>2 minutes</b>, the answer will be shown to you.</p> <p>Press 'v' to view the anagram. </p></center>",
      "key_press": 86,
      "trial_type": "html-keyboard-response",
      "trial_index": 7,
      "time_elapsed": 69403,
      "internal_node_id": "0.0-3.1-0.1",
      "responseType": "finish",
      "participantID": "ta1n1wpotchmtozu2d6kw50qbtpfmkul",
      "black_problems": [
        "AXPLINE"
      ],
      "blue_problems": [
        "AYKAWLJ"
      ],
      "blue_solution_time": 10
    },
    {
      "rt": 10001,
      "responses": "{\"Q0\":\"\"}",
      "trial_type": "survey-text",
      "trial_index": 8,
      "time_elapsed": 79406,
      "internal_node_id": "0.0-3.1-1.1",
      "responseType": "finish",
      "participantID": "ta1n1wpotchmtozu2d6kw50qbtpfmkul",
      "black_problems": [
        "AXPLINE"
      ],
      "blue_problems": [
        "AYKAWLJ"
      ],
      "blue_solution_time": 10
    },
    {
      "rt": 3952,
      "stimulus": "<center>The answer is: <h2 style=\"color:#069\"><p>JAYWALK</p></h2><br/><br/></center>",
      "button_pressed": "0",
      "trial_type": "html-button-response",
      "trial_index": 9,
      "time_elapsed": 83362,
      "internal_node_id": "0.0-3.1-2.1-0.1",
      "responseType": "finish",
      "participantID": "ta1n1wpotchmtozu2d6kw50qbtpfmkul",
      "black_problems": [
        "AXPLINE"
      ],
      "blue_problems": [
        "AYKAWLJ"
      ],
      "blue_solution_time": 10
    },
    {
      "rt": 4589,
      "responses": "{\"Q0\":5}",
      "trial_type": "survey-likert",
      "trial_index": 10,
      "time_elapsed": 87952,
      "internal_node_id": "0.0-3.1-3.1-0.1",
      "responseType": "finish",
      "participantID": "ta1n1wpotchmtozu2d6kw50qbtpfmkul",
      "black_problems": [
        "AXPLINE"
      ],
      "blue_problems": [
        "AYKAWLJ"
      ],
      "blue_solution_time": 10
    }
  ],
  "__v": 0
},{
  "_id": {
    "$oid": "62576dfb70675a0004e71171"
  },
  "data": [
    {
      "rt": 6454,
      "responses": "{\"Q0\":\" I consent to participate\"}",
      "trial_type": "survey-multi-choice",
      "trial_index": 0,
      "time_elapsed": 6459,
      "internal_node_id": "0.0-0.0",
      "responseType": "finish",
      "participantID": "q47ml4tb1lu4jqhzndb2qpq8sfrhtxg8",
      "black_problems": [
        "CAMHOMK"
      ],
      "blue_problems": [
        "AYUGNHT"
      ],
      "blue_solution_time": 20
    },
    {
      "trial_type": "call-function",
      "trial_index": 1,
      "time_elapsed": 6462,
      "internal_node_id": "0.0-1.0",
      "responseType": "finish",
      "participantID": "q47ml4tb1lu4jqhzndb2qpq8sfrhtxg8",
      "black_problems": [
        "CAMHOMK"
      ],
      "blue_problems": [
        "AYUGNHT"
      ],
      "blue_solution_time": 20
    },
    {
      "view_history": "[{\"page_index\":0,\"viewing_time\":9604},{\"page_index\":1,\"viewing_time\":15504},{\"page_index\":2,\"viewing_time\":6712}]",
      "rt": 31820,
      "trial_type": "instructions",
      "trial_index": 2,
      "time_elapsed": 38283,
      "internal_node_id": "0.0-2.0-0.0",
      "responseType": "finish",
      "participantID": "q47ml4tb1lu4jqhzndb2qpq8sfrhtxg8",
      "black_problems": [
        "CAMHOMK"
      ],
      "blue_problems": [
        "AYUGNHT"
      ],
      "blue_solution_time": 20
    },
    {
      "rt": 10942,
      "responses": "{\"Q0\":\"The answer to the blue colored anagram will be shown after 2 minutes.\"}",
      "trial_type": "survey-multi-choice",
      "trial_index": 3,
      "time_elapsed": 49226,
      "internal_node_id": "0.0-2.0-1.0",
      "responseType": "finish",
      "participantID": "q47ml4tb1lu4jqhzndb2qpq8sfrhtxg8",
      "black_problems": [
        "CAMHOMK"
      ],
      "blue_problems": [
        "AYUGNHT"
      ],
      "blue_solution_time": 20
    },
    {
      "rt": 6638,
      "stimulus": "<center><p>Now the <b style=\"color:#069\">blue</b> anagram will be shown to you.</p> <p>If you are not able to solve the anagram in <b>2 minutes</b>, the answer will be shown to you.</p> <p>Press 'v' to view the anagram. </p></center>",
      "key_press": 86,
      "trial_type": "html-keyboard-response",
      "trial_index": 4,
      "time_elapsed": 55867,
      "internal_node_id": "0.0-3.0-0.0",
      "responseType": "finish",
      "participantID": "q47ml4tb1lu4jqhzndb2qpq8sfrhtxg8",
      "black_problems": [
        "CAMHOMK"
      ],
      "blue_problems": [
        "AYUGNHT"
      ],
      "blue_solution_time": 20
    },
    {
      "rt": 20009,
      "responses": "{\"Q0\":\"Y\"}",
      "trial_type": "survey-text",
      "trial_index": 5,
      "time_elapsed": 75878,
      "internal_node_id": "0.0-3.0-1.0",
      "responseType": "finish",
      "participantID": "q47ml4tb1lu4jqhzndb2qpq8sfrhtxg8",
      "black_problems": [
        "CAMHOMK"
      ],
      "blue_problems": [
        "AYUGNHT"
      ],
      "blue_solution_time": 20
    },
    {
      "rt": 1915,
      "stimulus": "<center>The answer is: <h2 style=\"color:#069\"><p>NAUGHTY</p></h2><br/><br/></center>",
      "button_pressed": "0",
      "trial_type": "html-button-response",
      "trial_index": 6,
      "time_elapsed": 77795,
      "internal_node_id": "0.0-3.0-2.0-0.0",
      "responseType": "finish",
      "participantID": "q47ml4tb1lu4jqhzndb2qpq8sfrhtxg8",
      "black_problems": [
        "CAMHOMK"
      ],
      "blue_problems": [
        "AYUGNHT"
      ],
      "blue_solution_time": 20
    },
    {
      "rt": 11255,
      "responses": "{\"Q0\":6}",
      "trial_type": "survey-likert",
      "trial_index": 7,
      "time_elapsed": 89051,
      "internal_node_id": "0.0-3.0-3.0-0.0",
      "responseType": "finish",
      "participantID": "q47ml4tb1lu4jqhzndb2qpq8sfrhtxg8",
      "black_problems": [
        "CAMHOMK"
      ],
      "blue_problems": [
        "AYUGNHT"
      ],
      "blue_solution_time": 20
    },
    {
      "rt": 4254,
      "stimulus": "<center><p>Now the <b>black</b> anagram will be shown to you.</p> <p>If you are not able to solve the anagram in <b>2 minutes</b>, you will be taken to the next screen.</p> <p>Press 'v' to view the anagram. </p></center>",
      "key_press": 86,
      "trial_type": "html-keyboard-response",
      "trial_index": 8,
      "time_elapsed": 93315,
      "internal_node_id": "0.0-3.1-0.1",
      "responseType": "finish",
      "participantID": "q47ml4tb1lu4jqhzndb2qpq8sfrhtxg8",
      "black_problems": [
        "CAMHOMK"
      ],
      "blue_problems": [
        "AYUGNHT"
      ],
      "blue_solution_time": 20
    },
    {
      "rt": 13415,
      "responses": "{\"Q0\":\"Hammock\"}",
      "trial_type": "survey-text",
      "trial_index": 9,
      "time_elapsed": 106731,
      "internal_node_id": "0.0-3.1-1.1",
      "responseType": "finish",
      "participantID": "q47ml4tb1lu4jqhzndb2qpq8sfrhtxg8",
      "black_problems": [
        "CAMHOMK"
      ],
      "blue_problems": [
        "AYUGNHT"
      ],
      "blue_solution_time": 20
    },
    {
      "rt": 2887,
      "responses": "{\"Q0\":6}",
      "trial_type": "survey-likert",
      "trial_index": 10,
      "time_elapsed": 109619,
      "internal_node_id": "0.0-3.1-3.1-0.1",
      "responseType": "finish",
      "participantID": "q47ml4tb1lu4jqhzndb2qpq8sfrhtxg8",
      "black_problems": [
        "CAMHOMK"
      ],
      "blue_problems": [
        "AYUGNHT"
      ],
      "blue_solution_time": 20
    }
  ],
  "__v": 0
},{
  "_id": {
    "$oid": "62576e1670675a0004e71172"
  },
  "data": {
    "responseType": "start",
    "participantID": "14pftxjaqupb6wm5vfzptj5kll1htd1l",
    "black_problems": [
      "AXPLINE"
    ],
    "blue_problems": [
      "LUBMEJD"
    ],
    "blue_solution_time": 16
  },
  "__v": 0
},{
  "_id": {
    "$oid": "62576e2470675a0004e71173"
  },
  "data": [
    {
      "rt": 9627,
      "responses": "{\"Q0\":\" I consent to participate\"}",
      "trial_type": "survey-multi-choice",
      "trial_index": 0,
      "time_elapsed": 9656,
      "internal_node_id": "0.0-0.0",
      "responseType": "finish",
      "participantID": "so3etes21sj8ejz2aqa9rde2yj9qwsjb",
      "black_problems": [
        "CAMHOMK"
      ],
      "blue_problems": [
        "AYKAWLJ"
      ],
      "blue_solution_time": 20
    },
    {
      "trial_type": "call-function",
      "trial_index": 1,
      "time_elapsed": 9663,
      "internal_node_id": "0.0-1.0",
      "responseType": "finish",
      "participantID": "so3etes21sj8ejz2aqa9rde2yj9qwsjb",
      "black_problems": [
        "CAMHOMK"
      ],
      "blue_problems": [
        "AYKAWLJ"
      ],
      "blue_solution_time": 20
    },
    {
      "view_history": "[{\"page_index\":0,\"viewing_time\":6922},{\"page_index\":1,\"viewing_time\":36543},{\"page_index\":2,\"viewing_time\":6510}]",
      "rt": 49976,
      "trial_type": "instructions",
      "trial_index": 2,
      "time_elapsed": 59639,
      "internal_node_id": "0.0-2.0-0.0",
      "responseType": "finish",
      "participantID": "so3etes21sj8ejz2aqa9rde2yj9qwsjb",
      "black_problems": [
        "CAMHOMK"
      ],
      "blue_problems": [
        "AYKAWLJ"
      ],
      "blue_solution_time": 20
    },
    {
      "rt": 6584,
      "responses": "{\"Q0\":\"The answer to the blue colored anagram will be shown after 2 minutes.\"}",
      "trial_type": "survey-multi-choice",
      "trial_index": 3,
      "time_elapsed": 66225,
      "internal_node_id": "0.0-2.0-1.0",
      "responseType": "finish",
      "participantID": "so3etes21sj8ejz2aqa9rde2yj9qwsjb",
      "black_problems": [
        "CAMHOMK"
      ],
      "blue_problems": [
        "AYKAWLJ"
      ],
      "blue_solution_time": 20
    },
    {
      "rt": 4164,
      "stimulus": "<center><p>Now the <b>black</b> anagram will be shown to you.</p> <p>If you are not able to solve the anagram in <b>2 minutes</b>, you will be taken to the next screen.</p> <p>Press 'v' to view the anagram. </p></center>",
      "key_press": 86,
      "trial_type": "html-keyboard-response",
      "trial_index": 4,
      "time_elapsed": 70395,
      "internal_node_id": "0.0-3.0-0.0",
      "responseType": "finish",
      "participantID": "so3etes21sj8ejz2aqa9rde2yj9qwsjb",
      "black_problems": [
        "CAMHOMK"
      ],
      "blue_problems": [
        "AYKAWLJ"
      ],
      "blue_solution_time": 20
    },
    {
      "rt": 12410,
      "responses": "{\"Q0\":\"hammock\"}",
      "trial_type": "survey-text",
      "trial_index": 5,
      "time_elapsed": 82807,
      "internal_node_id": "0.0-3.0-1.0",
      "responseType": "finish",
      "participantID": "so3etes21sj8ejz2aqa9rde2yj9qwsjb",
      "black_problems": [
        "CAMHOMK"
      ],
      "blue_problems": [
        "AYKAWLJ"
      ],
      "blue_solution_time": 20
    },
    {
      "rt": 8076,
      "responses": "{\"Q0\":3}",
      "trial_type": "survey-likert",
      "trial_index": 6,
      "time_elapsed": 90884,
      "internal_node_id": "0.0-3.0-3.0-0.0",
      "responseType": "finish",
      "participantID": "so3etes21sj8ejz2aqa9rde2yj9qwsjb",
      "black_problems": [
        "CAMHOMK"
      ],
      "blue_problems": [
        "AYKAWLJ"
      ],
      "blue_solution_time": 20
    },
    {
      "rt": 2945,
      "stimulus": "<center><p>Now the <b style=\"color:#069\">blue</b> anagram will be shown to you.</p> <p>If you are not able to solve the anagram in <b>2 minutes</b>, the answer will be shown to you.</p> <p>Press 'v' to view the anagram. </p></center>",
      "key_press": 86,
      "trial_type": "html-keyboard-response",
      "trial_index": 7,
      "time_elapsed": 93846,
      "internal_node_id": "0.0-3.1-0.1",
      "responseType": "finish",
      "participantID": "so3etes21sj8ejz2aqa9rde2yj9qwsjb",
      "black_problems": [
        "CAMHOMK"
      ],
      "blue_problems": [
        "AYKAWLJ"
      ],
      "blue_solution_time": 20
    },
    {
      "rt": 20012,
      "responses": "{\"Q0\":\"\"}",
      "trial_type": "survey-text",
      "trial_index": 8,
      "time_elapsed": 113860,
      "internal_node_id": "0.0-3.1-1.1",
      "responseType": "finish",
      "participantID": "so3etes21sj8ejz2aqa9rde2yj9qwsjb",
      "black_problems": [
        "CAMHOMK"
      ],
      "blue_problems": [
        "AYKAWLJ"
      ],
      "blue_solution_time": 20
    },
    {
      "rt": 2636,
      "stimulus": "<center>The answer is: <h2 style=\"color:#069\"><p>JAYWALK</p></h2><br/><br/></center>",
      "button_pressed": "0",
      "trial_type": "html-button-response",
      "trial_index": 9,
      "time_elapsed": 116497,
      "internal_node_id": "0.0-3.1-2.1-0.1",
      "responseType": "finish",
      "participantID": "so3etes21sj8ejz2aqa9rde2yj9qwsjb",
      "black_problems": [
        "CAMHOMK"
      ],
      "blue_problems": [
        "AYKAWLJ"
      ],
      "blue_solution_time": 20
    },
    {
      "rt": 4504,
      "responses": "{\"Q0\":5}",
      "trial_type": "survey-likert",
      "trial_index": 10,
      "time_elapsed": 121002,
      "internal_node_id": "0.0-3.1-3.1-0.1",
      "responseType": "finish",
      "participantID": "so3etes21sj8ejz2aqa9rde2yj9qwsjb",
      "black_problems": [
        "CAMHOMK"
      ],
      "blue_problems": [
        "AYKAWLJ"
      ],
      "blue_solution_time": 20
    }
  ],
  "__v": 0
},{
  "_id": {
    "$oid": "62576e3170675a0004e71174"
  },
  "data": [
    {
      "rt": 5471,
      "responses": "{\"Q0\":\" I consent to participate\"}",
      "trial_type": "survey-multi-choice",
      "trial_index": 0,
      "time_elapsed": 5480,
      "internal_node_id": "0.0-0.0",
      "responseType": "finish",
      "participantID": "zzo5kzkj0eytvluudu3c99fqekkk3omz",
      "black_problems": [
        "CAMHOMK"
      ],
      "blue_problems": [
        "AXPLINE"
      ],
      "blue_solution_time": 15
    },
    {
      "trial_type": "call-function",
      "trial_index": 1,
      "time_elapsed": 5487,
      "internal_node_id": "0.0-1.0",
      "responseType": "finish",
      "participantID": "zzo5kzkj0eytvluudu3c99fqekkk3omz",
      "black_problems": [
        "CAMHOMK"
      ],
      "blue_problems": [
        "AXPLINE"
      ],
      "blue_solution_time": 15
    },
    {
      "view_history": "[{\"page_index\":0,\"viewing_time\":9071},{\"page_index\":1,\"viewing_time\":6719},{\"page_index\":2,\"viewing_time\":6075}]",
      "rt": 21866,
      "trial_type": "instructions",
      "trial_index": 2,
      "time_elapsed": 27353,
      "internal_node_id": "0.0-2.0-0.0",
      "responseType": "finish",
      "participantID": "zzo5kzkj0eytvluudu3c99fqekkk3omz",
      "black_problems": [
        "CAMHOMK"
      ],
      "blue_problems": [
        "AXPLINE"
      ],
      "blue_solution_time": 15
    },
    {
      "rt": 8218,
      "responses": "{\"Q0\":\"The answer to the black colored anagram will be shown after 1 minute.\"}",
      "trial_type": "survey-multi-choice",
      "trial_index": 3,
      "time_elapsed": 35574,
      "internal_node_id": "0.0-2.0-1.0",
      "responseType": "finish",
      "participantID": "zzo5kzkj0eytvluudu3c99fqekkk3omz",
      "black_problems": [
        "CAMHOMK"
      ],
      "blue_problems": [
        "AXPLINE"
      ],
      "blue_solution_time": 15
    },
    {
      "view_history": "[{\"page_index\":0,\"viewing_time\":6091},{\"page_index\":1,\"viewing_time\":7282},{\"page_index\":2,\"viewing_time\":5994}]",
      "rt": 19367,
      "trial_type": "instructions",
      "trial_index": 4,
      "time_elapsed": 56575,
      "internal_node_id": "0.0-2.1-0.1",
      "responseType": "finish",
      "participantID": "zzo5kzkj0eytvluudu3c99fqekkk3omz",
      "black_problems": [
        "CAMHOMK"
      ],
      "blue_problems": [
        "AXPLINE"
      ],
      "blue_solution_time": 15
    },
    {
      "rt": 13363,
      "responses": "{\"Q0\":\"The answer to the blue colored anagram will be shown after 2 minutes.\"}",
      "trial_type": "survey-multi-choice",
      "trial_index": 5,
      "time_elapsed": 69942,
      "internal_node_id": "0.0-2.1-1.1",
      "responseType": "finish",
      "participantID": "zzo5kzkj0eytvluudu3c99fqekkk3omz",
      "black_problems": [
        "CAMHOMK"
      ],
      "blue_problems": [
        "AXPLINE"
      ],
      "blue_solution_time": 15
    },
    {
      "rt": 2310,
      "stimulus": "<center><p>Now the <b style=\"color:#069\">blue</b> anagram will be shown to you.</p> <p>If you are not able to solve the anagram in <b>2 minutes</b>, the answer will be shown to you.</p> <p>Press 'v' to view the anagram. </p></center>",
      "key_press": 86,
      "trial_type": "html-keyboard-response",
      "trial_index": 6,
      "time_elapsed": 72255,
      "internal_node_id": "0.0-3.0-0.0",
      "responseType": "finish",
      "participantID": "zzo5kzkj0eytvluudu3c99fqekkk3omz",
      "black_problems": [
        "CAMHOMK"
      ],
      "blue_problems": [
        "AXPLINE"
      ],
      "blue_solution_time": 15
    },
    {
      "rt": 12451,
      "responses": "{\"Q0\":\"Explain\"}",
      "trial_type": "survey-text",
      "trial_index": 7,
      "time_elapsed": 84709,
      "internal_node_id": "0.0-3.0-1.0",
      "responseType": "finish",
      "participantID": "zzo5kzkj0eytvluudu3c99fqekkk3omz",
      "black_problems": [
        "CAMHOMK"
      ],
      "blue_problems": [
        "AXPLINE"
      ],
      "blue_solution_time": 15
    },
    {
      "rt": 947,
      "stimulus": "<center>The answer is: <h2 style=\"color:#069\"><p>EXPLAIN</p></h2><br/><br/></center>",
      "button_pressed": "0",
      "trial_type": "html-button-response",
      "trial_index": 8,
      "time_elapsed": 85660,
      "internal_node_id": "0.0-3.0-2.0-0.0",
      "responseType": "finish",
      "participantID": "zzo5kzkj0eytvluudu3c99fqekkk3omz",
      "black_problems": [
        "CAMHOMK"
      ],
      "blue_problems": [
        "AXPLINE"
      ],
      "blue_solution_time": 15
    },
    {
      "rt": 4241,
      "responses": "{\"Q0\":5}",
      "trial_type": "survey-likert",
      "trial_index": 9,
      "time_elapsed": 89903,
      "internal_node_id": "0.0-3.0-3.0-0.0",
      "responseType": "finish",
      "participantID": "zzo5kzkj0eytvluudu3c99fqekkk3omz",
      "black_problems": [
        "CAMHOMK"
      ],
      "blue_problems": [
        "AXPLINE"
      ],
      "blue_solution_time": 15
    },
    {
      "rt": 1848,
      "stimulus": "<center><p>Now the <b>black</b> anagram will be shown to you.</p> <p>If you are not able to solve the anagram in <b>2 minutes</b>, you will be taken to the next screen.</p> <p>Press 'v' to view the anagram. </p></center>",
      "key_press": 86,
      "trial_type": "html-keyboard-response",
      "trial_index": 10,
      "time_elapsed": 91768,
      "internal_node_id": "0.0-3.1-0.1",
      "responseType": "finish",
      "participantID": "zzo5kzkj0eytvluudu3c99fqekkk3omz",
      "black_problems": [
        "CAMHOMK"
      ],
      "blue_problems": [
        "AXPLINE"
      ],
      "blue_solution_time": 15
    },
    {
      "rt": 32749,
      "responses": "{\"Q0\":\"Hammock\"}",
      "trial_type": "survey-text",
      "trial_index": 11,
      "time_elapsed": 124518,
      "internal_node_id": "0.0-3.1-1.1",
      "responseType": "finish",
      "participantID": "zzo5kzkj0eytvluudu3c99fqekkk3omz",
      "black_problems": [
        "CAMHOMK"
      ],
      "blue_problems": [
        "AXPLINE"
      ],
      "blue_solution_time": 15
    },
    {
      "rt": 2557,
      "responses": "{\"Q0\":3}",
      "trial_type": "survey-likert",
      "trial_index": 12,
      "time_elapsed": 127078,
      "internal_node_id": "0.0-3.1-3.1-0.1",
      "responseType": "finish",
      "participantID": "zzo5kzkj0eytvluudu3c99fqekkk3omz",
      "black_problems": [
        "CAMHOMK"
      ],
      "blue_problems": [
        "AXPLINE"
      ],
      "blue_solution_time": 15
    }
  ],
  "__v": 0
},{
  "_id": {
    "$oid": "62576e3670675a0004e71175"
  },
  "data": {
    "responseType": "start",
    "participantID": "7yp5a5xm8ltjadxxodf988umwcqbq99n",
    "black_problems": [
      "LUBMEJD"
    ],
    "blue_problems": [
      "AXPLINE"
    ],
    "blue_solution_time": 19
  },
  "__v": 0
},{
  "_id": {
    "$oid": "62576e7370675a0004e71176"
  },
  "data": {
    "responseType": "start",
    "participantID": "o8unz3uc11y5emyoyrvgtrbdz7waynvs",
    "black_problems": [
      "LUBMEJD"
    ],
    "blue_problems": [
      "AYUGNHT"
    ],
    "blue_solution_time": 19
  },
  "__v": 0
},{
  "_id": {
    "$oid": "62576e7870675a0004e71177"
  },
  "data": {
    "responseType": "start",
    "participantID": "yq9xyp0ha0mgdvnups91l10vjksyt6aj",
    "black_problems": [
      "LUBMEJD"
    ],
    "blue_problems": [
      "AYKAWLJ"
    ],
    "blue_solution_time": 13
  },
  "__v": 0
},{
  "_id": {
    "$oid": "62576e9c70675a0004e71178"
  },
  "data": {
    "responseType": "start",
    "participantID": "q9mmbp0x44xctzbtdavc91osne871meq",
    "black_problems": [
      "CAMHOMK"
    ],
    "blue_problems": [
      "AYKAWLJ"
    ],
    "blue_solution_time": 20
  },
  "__v": 0
},{
  "_id": {
    "$oid": "62576eb370675a0004e71179"
  },
  "data": [
    {
      "rt": 24954,
      "responses": "{\"Q0\":\" I consent to participate\"}",
      "trial_type": "survey-multi-choice",
      "trial_index": 0,
      "time_elapsed": 24959,
      "internal_node_id": "0.0-0.0",
      "responseType": "finish",
      "participantID": "7yp5a5xm8ltjadxxodf988umwcqbq99n",
      "black_problems": [
        "LUBMEJD"
      ],
      "blue_problems": [
        "AXPLINE"
      ],
      "blue_solution_time": 19
    },
    {
      "trial_type": "call-function",
      "trial_index": 1,
      "time_elapsed": 24962,
      "internal_node_id": "0.0-1.0",
      "responseType": "finish",
      "participantID": "7yp5a5xm8ltjadxxodf988umwcqbq99n",
      "black_problems": [
        "LUBMEJD"
      ],
      "blue_problems": [
        "AXPLINE"
      ],
      "blue_solution_time": 19
    },
    {
      "view_history": "[{\"page_index\":0,\"viewing_time\":27601},{\"page_index\":1,\"viewing_time\":18143},{\"page_index\":2,\"viewing_time\":6259}]",
      "rt": 52004,
      "trial_type": "instructions",
      "trial_index": 2,
      "time_elapsed": 76966,
      "internal_node_id": "0.0-2.0-0.0",
      "responseType": "finish",
      "participantID": "7yp5a5xm8ltjadxxodf988umwcqbq99n",
      "black_problems": [
        "LUBMEJD"
      ],
      "blue_problems": [
        "AXPLINE"
      ],
      "blue_solution_time": 19
    },
    {
      "rt": 23268,
      "responses": "{\"Q0\":\"The answer to the blue colored anagram will be shown after 2 minutes.\"}",
      "trial_type": "survey-multi-choice",
      "trial_index": 3,
      "time_elapsed": 100236,
      "internal_node_id": "0.0-2.0-1.0",
      "responseType": "finish",
      "participantID": "7yp5a5xm8ltjadxxodf988umwcqbq99n",
      "black_problems": [
        "LUBMEJD"
      ],
      "blue_problems": [
        "AXPLINE"
      ],
      "blue_solution_time": 19
    },
    {
      "rt": 8035,
      "stimulus": "<center><p>Now the <b>black</b> anagram will be shown to you.</p> <p>If you are not able to solve the anagram in <b>2 minutes</b>, you will be taken to the next screen.</p> <p>Press 'v' to view the anagram. </p></center>",
      "key_press": 86,
      "trial_type": "html-keyboard-response",
      "trial_index": 4,
      "time_elapsed": 108272,
      "internal_node_id": "0.0-3.0-0.0",
      "responseType": "finish",
      "participantID": "7yp5a5xm8ltjadxxodf988umwcqbq99n",
      "black_problems": [
        "LUBMEJD"
      ],
      "blue_problems": [
        "AXPLINE"
      ],
      "blue_solution_time": 19
    },
    {
      "rt": 13182,
      "responses": "{\"Q0\":\"jumbled\"}",
      "trial_type": "survey-text",
      "trial_index": 5,
      "time_elapsed": 121455,
      "internal_node_id": "0.0-3.0-1.0",
      "responseType": "finish",
      "participantID": "7yp5a5xm8ltjadxxodf988umwcqbq99n",
      "black_problems": [
        "LUBMEJD"
      ],
      "blue_problems": [
        "AXPLINE"
      ],
      "blue_solution_time": 19
    },
    {
      "rt": 10098,
      "responses": "{\"Q0\":6}",
      "trial_type": "survey-likert",
      "trial_index": 6,
      "time_elapsed": 131554,
      "internal_node_id": "0.0-3.0-3.0-0.0",
      "responseType": "finish",
      "participantID": "7yp5a5xm8ltjadxxodf988umwcqbq99n",
      "black_problems": [
        "LUBMEJD"
      ],
      "blue_problems": [
        "AXPLINE"
      ],
      "blue_solution_time": 19
    },
    {
      "rt": 4123,
      "stimulus": "<center><p>Now the <b style=\"color:#069\">blue</b> anagram will be shown to you.</p> <p>If you are not able to solve the anagram in <b>2 minutes</b>, the answer will be shown to you.</p> <p>Press 'v' to view the anagram. </p></center>",
      "key_press": 86,
      "trial_type": "html-keyboard-response",
      "trial_index": 7,
      "time_elapsed": 135687,
      "internal_node_id": "0.0-3.1-0.1",
      "responseType": "finish",
      "participantID": "7yp5a5xm8ltjadxxodf988umwcqbq99n",
      "black_problems": [
        "LUBMEJD"
      ],
      "blue_problems": [
        "AXPLINE"
      ],
      "blue_solution_time": 19
    },
    {
      "rt": 8949,
      "responses": "{\"Q0\":\"explain\"}",
      "trial_type": "survey-text",
      "trial_index": 8,
      "time_elapsed": 144637,
      "internal_node_id": "0.0-3.1-1.1",
      "responseType": "finish",
      "participantID": "7yp5a5xm8ltjadxxodf988umwcqbq99n",
      "black_problems": [
        "LUBMEJD"
      ],
      "blue_problems": [
        "AXPLINE"
      ],
      "blue_solution_time": 19
    },
    {
      "rt": 1698,
      "stimulus": "<center>The answer is: <h2 style=\"color:#069\"><p>EXPLAIN</p></h2><br/><br/></center>",
      "button_pressed": "0",
      "trial_type": "html-button-response",
      "trial_index": 9,
      "time_elapsed": 146336,
      "internal_node_id": "0.0-3.1-2.1-0.1",
      "responseType": "finish",
      "participantID": "7yp5a5xm8ltjadxxodf988umwcqbq99n",
      "black_problems": [
        "LUBMEJD"
      ],
      "blue_problems": [
        "AXPLINE"
      ],
      "blue_solution_time": 19
    },
    {
      "rt": 3827,
      "responses": "{\"Q0\":5}",
      "trial_type": "survey-likert",
      "trial_index": 10,
      "time_elapsed": 150164,
      "internal_node_id": "0.0-3.1-3.1-0.1",
      "responseType": "finish",
      "participantID": "7yp5a5xm8ltjadxxodf988umwcqbq99n",
      "black_problems": [
        "LUBMEJD"
      ],
      "blue_problems": [
        "AXPLINE"
      ],
      "blue_solution_time": 19
    }
  ],
  "__v": 0
},{
  "_id": {
    "$oid": "62576ed670675a0004e7117a"
  },
  "data": [
    {
      "rt": 27533,
      "responses": "{\"Q0\":\" I consent to participate\"}",
      "trial_type": "survey-multi-choice",
      "trial_index": 0,
      "time_elapsed": 27569,
      "internal_node_id": "0.0-0.0",
      "responseType": "finish",
      "participantID": "o8unz3uc11y5emyoyrvgtrbdz7waynvs",
      "black_problems": [
        "LUBMEJD"
      ],
      "blue_problems": [
        "AYUGNHT"
      ],
      "blue_solution_time": 19
    },
    {
      "trial_type": "call-function",
      "trial_index": 1,
      "time_elapsed": 27579,
      "internal_node_id": "0.0-1.0",
      "responseType": "finish",
      "participantID": "o8unz3uc11y5emyoyrvgtrbdz7waynvs",
      "black_problems": [
        "LUBMEJD"
      ],
      "blue_problems": [
        "AYUGNHT"
      ],
      "blue_solution_time": 19
    },
    {
      "view_history": "[{\"page_index\":0,\"viewing_time\":9434},{\"page_index\":1,\"viewing_time\":17641},{\"page_index\":2,\"viewing_time\":6648}]",
      "rt": 33723,
      "trial_type": "instructions",
      "trial_index": 2,
      "time_elapsed": 61302,
      "internal_node_id": "0.0-2.0-0.0",
      "responseType": "finish",
      "participantID": "o8unz3uc11y5emyoyrvgtrbdz7waynvs",
      "black_problems": [
        "LUBMEJD"
      ],
      "blue_problems": [
        "AYUGNHT"
      ],
      "blue_solution_time": 19
    },
    {
      "rt": 9477,
      "responses": "{\"Q0\":\"The answer to the blue colored anagram will be shown after 2 minutes.\"}",
      "trial_type": "survey-multi-choice",
      "trial_index": 3,
      "time_elapsed": 70782,
      "internal_node_id": "0.0-2.0-1.0",
      "responseType": "finish",
      "participantID": "o8unz3uc11y5emyoyrvgtrbdz7waynvs",
      "black_problems": [
        "LUBMEJD"
      ],
      "blue_problems": [
        "AYUGNHT"
      ],
      "blue_solution_time": 19
    },
    {
      "rt": 7543,
      "stimulus": "<center><p>Now the <b>black</b> anagram will be shown to you.</p> <p>If you are not able to solve the anagram in <b>2 minutes</b>, you will be taken to the next screen.</p> <p>Press 'v' to view the anagram. </p></center>",
      "key_press": 86,
      "trial_type": "html-keyboard-response",
      "trial_index": 4,
      "time_elapsed": 78330,
      "internal_node_id": "0.0-3.0-0.0",
      "responseType": "finish",
      "participantID": "o8unz3uc11y5emyoyrvgtrbdz7waynvs",
      "black_problems": [
        "LUBMEJD"
      ],
      "blue_problems": [
        "AYUGNHT"
      ],
      "blue_solution_time": 19
    },
    {
      "rt": 9236,
      "responses": "{\"Q0\":\"jumbled\"}",
      "trial_type": "survey-text",
      "trial_index": 5,
      "time_elapsed": 87568,
      "internal_node_id": "0.0-3.0-1.0",
      "responseType": "finish",
      "participantID": "o8unz3uc11y5emyoyrvgtrbdz7waynvs",
      "black_problems": [
        "LUBMEJD"
      ],
      "blue_problems": [
        "AYUGNHT"
      ],
      "blue_solution_time": 19
    },
    {
      "rt": 16427,
      "responses": "{\"Q0\":4}",
      "trial_type": "survey-likert",
      "trial_index": 6,
      "time_elapsed": 103997,
      "internal_node_id": "0.0-3.0-3.0-0.0",
      "responseType": "finish",
      "participantID": "o8unz3uc11y5emyoyrvgtrbdz7waynvs",
      "black_problems": [
        "LUBMEJD"
      ],
      "blue_problems": [
        "AYUGNHT"
      ],
      "blue_solution_time": 19
    },
    {
      "rt": 3443,
      "stimulus": "<center><p>Now the <b style=\"color:#069\">blue</b> anagram will be shown to you.</p> <p>If you are not able to solve the anagram in <b>2 minutes</b>, the answer will be shown to you.</p> <p>Press 'v' to view the anagram. </p></center>",
      "key_press": 86,
      "trial_type": "html-keyboard-response",
      "trial_index": 7,
      "time_elapsed": 107462,
      "internal_node_id": "0.0-3.1-0.1",
      "responseType": "finish",
      "participantID": "o8unz3uc11y5emyoyrvgtrbdz7waynvs",
      "black_problems": [
        "LUBMEJD"
      ],
      "blue_problems": [
        "AYUGNHT"
      ],
      "blue_solution_time": 19
    },
    {
      "rt": 11131,
      "responses": "{\"Q0\":\"naughty\"}",
      "trial_type": "survey-text",
      "trial_index": 8,
      "time_elapsed": 118593,
      "internal_node_id": "0.0-3.1-1.1",
      "responseType": "finish",
      "participantID": "o8unz3uc11y5emyoyrvgtrbdz7waynvs",
      "black_problems": [
        "LUBMEJD"
      ],
      "blue_problems": [
        "AYUGNHT"
      ],
      "blue_solution_time": 19
    },
    {
      "rt": 1733,
      "stimulus": "<center>The answer is: <h2 style=\"color:#069\"><p>NAUGHTY</p></h2><br/><br/></center>",
      "button_pressed": "0",
      "trial_type": "html-button-response",
      "trial_index": 9,
      "time_elapsed": 120328,
      "internal_node_id": "0.0-3.1-2.1-0.1",
      "responseType": "finish",
      "participantID": "o8unz3uc11y5emyoyrvgtrbdz7waynvs",
      "black_problems": [
        "LUBMEJD"
      ],
      "blue_problems": [
        "AYUGNHT"
      ],
      "blue_solution_time": 19
    },
    {
      "rt": 6827,
      "responses": "{\"Q0\":4}",
      "trial_type": "survey-likert",
      "trial_index": 10,
      "time_elapsed": 127156,
      "internal_node_id": "0.0-3.1-3.1-0.1",
      "responseType": "finish",
      "participantID": "o8unz3uc11y5emyoyrvgtrbdz7waynvs",
      "black_problems": [
        "LUBMEJD"
      ],
      "blue_problems": [
        "AYUGNHT"
      ],
      "blue_solution_time": 19
    }
  ],
  "__v": 0
},{
  "_id": {
    "$oid": "62576ef170675a0004e7117b"
  },
  "data": {
    "responseType": "start",
    "participantID": "t59b1f9yc8k5khqk888wps2wurgdayjq",
    "black_problems": [
      "LUBMEJD"
    ],
    "blue_problems": [
      "CAMHOMK"
    ],
    "blue_solution_time": 13
  },
  "__v": 0
},{
  "_id": {
    "$oid": "62576efc70675a0004e7117c"
  },
  "data": [
    {
      "rt": 7438,
      "responses": "{\"Q0\":\" I consent to participate\"}",
      "trial_type": "survey-multi-choice",
      "trial_index": 0,
      "time_elapsed": 7450,
      "internal_node_id": "0.0-0.0",
      "responseType": "finish",
      "participantID": "q9mmbp0x44xctzbtdavc91osne871meq",
      "black_problems": [
        "CAMHOMK"
      ],
      "blue_problems": [
        "AYKAWLJ"
      ],
      "blue_solution_time": 20
    },
    {
      "trial_type": "call-function",
      "trial_index": 1,
      "time_elapsed": 7456,
      "internal_node_id": "0.0-1.0",
      "responseType": "finish",
      "participantID": "q9mmbp0x44xctzbtdavc91osne871meq",
      "black_problems": [
        "CAMHOMK"
      ],
      "blue_problems": [
        "AYKAWLJ"
      ],
      "blue_solution_time": 20
    },
    {
      "view_history": "[{\"page_index\":0,\"viewing_time\":16940},{\"page_index\":1,\"viewing_time\":10635},{\"page_index\":2,\"viewing_time\":5350}]",
      "rt": 32926,
      "trial_type": "instructions",
      "trial_index": 2,
      "time_elapsed": 40382,
      "internal_node_id": "0.0-2.0-0.0",
      "responseType": "finish",
      "participantID": "q9mmbp0x44xctzbtdavc91osne871meq",
      "black_problems": [
        "CAMHOMK"
      ],
      "blue_problems": [
        "AYKAWLJ"
      ],
      "blue_solution_time": 20
    },
    {
      "rt": 10471,
      "responses": "{\"Q0\":\"The answer to the blue colored anagram will be shown after 2 minutes.\"}",
      "trial_type": "survey-multi-choice",
      "trial_index": 3,
      "time_elapsed": 50856,
      "internal_node_id": "0.0-2.0-1.0",
      "responseType": "finish",
      "participantID": "q9mmbp0x44xctzbtdavc91osne871meq",
      "black_problems": [
        "CAMHOMK"
      ],
      "blue_problems": [
        "AYKAWLJ"
      ],
      "blue_solution_time": 20
    },
    {
      "rt": 6249,
      "stimulus": "<center><p>Now the <b style=\"color:#069\">blue</b> anagram will be shown to you.</p> <p>If you are not able to solve the anagram in <b>2 minutes</b>, the answer will be shown to you.</p> <p>Press 'v' to view the anagram. </p></center>",
      "key_press": 86,
      "trial_type": "html-keyboard-response",
      "trial_index": 4,
      "time_elapsed": 57107,
      "internal_node_id": "0.0-3.0-0.0",
      "responseType": "finish",
      "participantID": "q9mmbp0x44xctzbtdavc91osne871meq",
      "black_problems": [
        "CAMHOMK"
      ],
      "blue_problems": [
        "AYKAWLJ"
      ],
      "blue_solution_time": 20
    },
    {
      "rt": 12290,
      "responses": "{\"Q0\":\"jaywalk\"}",
      "trial_type": "survey-text",
      "trial_index": 5,
      "time_elapsed": 69398,
      "internal_node_id": "0.0-3.0-1.0",
      "responseType": "finish",
      "participantID": "q9mmbp0x44xctzbtdavc91osne871meq",
      "black_problems": [
        "CAMHOMK"
      ],
      "blue_problems": [
        "AYKAWLJ"
      ],
      "blue_solution_time": 20
    },
    {
      "rt": 1734,
      "stimulus": "<center>The answer is: <h2 style=\"color:#069\"><p>JAYWALK</p></h2><br/><br/></center>",
      "button_pressed": "0",
      "trial_type": "html-button-response",
      "trial_index": 6,
      "time_elapsed": 71134,
      "internal_node_id": "0.0-3.0-2.0-0.0",
      "responseType": "finish",
      "participantID": "q9mmbp0x44xctzbtdavc91osne871meq",
      "black_problems": [
        "CAMHOMK"
      ],
      "blue_problems": [
        "AYKAWLJ"
      ],
      "blue_solution_time": 20
    },
    {
      "rt": 8706,
      "responses": "{\"Q0\":3}",
      "trial_type": "survey-likert",
      "trial_index": 7,
      "time_elapsed": 79843,
      "internal_node_id": "0.0-3.0-3.0-0.0",
      "responseType": "finish",
      "participantID": "q9mmbp0x44xctzbtdavc91osne871meq",
      "black_problems": [
        "CAMHOMK"
      ],
      "blue_problems": [
        "AYKAWLJ"
      ],
      "blue_solution_time": 20
    },
    {
      "rt": 2894,
      "stimulus": "<center><p>Now the <b>black</b> anagram will be shown to you.</p> <p>If you are not able to solve the anagram in <b>2 minutes</b>, you will be taken to the next screen.</p> <p>Press 'v' to view the anagram. </p></center>",
      "key_press": 86,
      "trial_type": "html-keyboard-response",
      "trial_index": 8,
      "time_elapsed": 82757,
      "internal_node_id": "0.0-3.1-0.1",
      "responseType": "finish",
      "participantID": "q9mmbp0x44xctzbtdavc91osne871meq",
      "black_problems": [
        "CAMHOMK"
      ],
      "blue_problems": [
        "AYKAWLJ"
      ],
      "blue_solution_time": 20
    },
    {
      "rt": 17538,
      "responses": "{\"Q0\":\"hammock\"}",
      "trial_type": "survey-text",
      "trial_index": 9,
      "time_elapsed": 100296,
      "internal_node_id": "0.0-3.1-1.1",
      "responseType": "finish",
      "participantID": "q9mmbp0x44xctzbtdavc91osne871meq",
      "black_problems": [
        "CAMHOMK"
      ],
      "blue_problems": [
        "AYKAWLJ"
      ],
      "blue_solution_time": 20
    },
    {
      "rt": 3121,
      "responses": "{\"Q0\":6}",
      "trial_type": "survey-likert",
      "trial_index": 10,
      "time_elapsed": 103419,
      "internal_node_id": "0.0-3.1-3.1-0.1",
      "responseType": "finish",
      "participantID": "q9mmbp0x44xctzbtdavc91osne871meq",
      "black_problems": [
        "CAMHOMK"
      ],
      "blue_problems": [
        "AYKAWLJ"
      ],
      "blue_solution_time": 20
    }
  ],
  "__v": 0
},{
  "_id": {
    "$oid": "62576f0170675a0004e7117d"
  },
  "data": [
    {
      "rt": 5901,
      "responses": "{\"Q0\":\" I consent to participate\"}",
      "trial_type": "survey-multi-choice",
      "trial_index": 0,
      "time_elapsed": 5908,
      "internal_node_id": "0.0-0.0",
      "responseType": "finish",
      "participantID": "yq9xyp0ha0mgdvnups91l10vjksyt6aj",
      "black_problems": [
        "LUBMEJD"
      ],
      "blue_problems": [
        "AYKAWLJ"
      ],
      "blue_solution_time": 13
    },
    {
      "trial_type": "call-function",
      "trial_index": 1,
      "time_elapsed": 5912,
      "internal_node_id": "0.0-1.0",
      "responseType": "finish",
      "participantID": "yq9xyp0ha0mgdvnups91l10vjksyt6aj",
      "black_problems": [
        "LUBMEJD"
      ],
      "blue_problems": [
        "AYKAWLJ"
      ],
      "blue_solution_time": 13
    },
    {
      "view_history": "[{\"page_index\":0,\"viewing_time\":13170},{\"page_index\":1,\"viewing_time\":30655},{\"page_index\":2,\"viewing_time\":8298}]",
      "rt": 52123,
      "trial_type": "instructions",
      "trial_index": 2,
      "time_elapsed": 58035,
      "internal_node_id": "0.0-2.0-0.0",
      "responseType": "finish",
      "participantID": "yq9xyp0ha0mgdvnups91l10vjksyt6aj",
      "black_problems": [
        "LUBMEJD"
      ],
      "blue_problems": [
        "AYKAWLJ"
      ],
      "blue_solution_time": 13
    },
    {
      "rt": 11963,
      "responses": "{\"Q0\":\"The answer to the blue colored anagram will be shown after 2 minutes.\"}",
      "trial_type": "survey-multi-choice",
      "trial_index": 3,
      "time_elapsed": 70004,
      "internal_node_id": "0.0-2.0-1.0",
      "responseType": "finish",
      "participantID": "yq9xyp0ha0mgdvnups91l10vjksyt6aj",
      "black_problems": [
        "LUBMEJD"
      ],
      "blue_problems": [
        "AYKAWLJ"
      ],
      "blue_solution_time": 13
    },
    {
      "rt": 8384,
      "stimulus": "<center><p>Now the <b>black</b> anagram will be shown to you.</p> <p>If you are not able to solve the anagram in <b>2 minutes</b>, you will be taken to the next screen.</p> <p>Press 'v' to view the anagram. </p></center>",
      "key_press": 86,
      "trial_type": "html-keyboard-response",
      "trial_index": 4,
      "time_elapsed": 78390,
      "internal_node_id": "0.0-3.0-0.0",
      "responseType": "finish",
      "participantID": "yq9xyp0ha0mgdvnups91l10vjksyt6aj",
      "black_problems": [
        "LUBMEJD"
      ],
      "blue_problems": [
        "AYKAWLJ"
      ],
      "blue_solution_time": 13
    },
    {
      "rt": 25301,
      "responses": "{\"Q0\":\"jumbled\"}",
      "trial_type": "survey-text",
      "trial_index": 5,
      "time_elapsed": 103694,
      "internal_node_id": "0.0-3.0-1.0",
      "responseType": "finish",
      "participantID": "yq9xyp0ha0mgdvnups91l10vjksyt6aj",
      "black_problems": [
        "LUBMEJD"
      ],
      "blue_problems": [
        "AYKAWLJ"
      ],
      "blue_solution_time": 13
    },
    {
      "rt": 11487,
      "responses": "{\"Q0\":0}",
      "trial_type": "survey-likert",
      "trial_index": 6,
      "time_elapsed": 115182,
      "internal_node_id": "0.0-3.0-3.0-0.0",
      "responseType": "finish",
      "participantID": "yq9xyp0ha0mgdvnups91l10vjksyt6aj",
      "black_problems": [
        "LUBMEJD"
      ],
      "blue_problems": [
        "AYKAWLJ"
      ],
      "blue_solution_time": 13
    },
    {
      "rt": 5420,
      "stimulus": "<center><p>Now the <b style=\"color:#069\">blue</b> anagram will be shown to you.</p> <p>If you are not able to solve the anagram in <b>2 minutes</b>, the answer will be shown to you.</p> <p>Press 'v' to view the anagram. </p></center>",
      "key_press": 86,
      "trial_type": "html-keyboard-response",
      "trial_index": 7,
      "time_elapsed": 120621,
      "internal_node_id": "0.0-3.1-0.1",
      "responseType": "finish",
      "participantID": "yq9xyp0ha0mgdvnups91l10vjksyt6aj",
      "black_problems": [
        "LUBMEJD"
      ],
      "blue_problems": [
        "AYKAWLJ"
      ],
      "blue_solution_time": 13
    },
    {
      "rt": 13003,
      "responses": "{\"Q0\":\"jay\"}",
      "trial_type": "survey-text",
      "trial_index": 8,
      "time_elapsed": 133626,
      "internal_node_id": "0.0-3.1-1.1",
      "responseType": "finish",
      "participantID": "yq9xyp0ha0mgdvnups91l10vjksyt6aj",
      "black_problems": [
        "LUBMEJD"
      ],
      "blue_problems": [
        "AYKAWLJ"
      ],
      "blue_solution_time": 13
    },
    {
      "rt": 3951,
      "stimulus": "<center>The answer is: <h2 style=\"color:#069\"><p>JAYWALK</p></h2><br/><br/></center>",
      "button_pressed": "0",
      "trial_type": "html-button-response",
      "trial_index": 9,
      "time_elapsed": 137580,
      "internal_node_id": "0.0-3.1-2.1-0.1",
      "responseType": "finish",
      "participantID": "yq9xyp0ha0mgdvnups91l10vjksyt6aj",
      "black_problems": [
        "LUBMEJD"
      ],
      "blue_problems": [
        "AYKAWLJ"
      ],
      "blue_solution_time": 13
    },
    {
      "rt": 4976,
      "responses": "{\"Q0\":0}",
      "trial_type": "survey-likert",
      "trial_index": 10,
      "time_elapsed": 142558,
      "internal_node_id": "0.0-3.1-3.1-0.1",
      "responseType": "finish",
      "participantID": "yq9xyp0ha0mgdvnups91l10vjksyt6aj",
      "black_problems": [
        "LUBMEJD"
      ],
      "blue_problems": [
        "AYKAWLJ"
      ],
      "blue_solution_time": 13
    }
  ],
  "__v": 0
},{
  "_id": {
    "$oid": "62576f1870675a0004e7117e"
  },
  "data": {
    "responseType": "start",
    "participantID": "yye1krjt5ha8rngtnyedfo2onvhnwnmr",
    "black_problems": [
      "CAMHOMK"
    ],
    "blue_problems": [
      "AXPLINE"
    ],
    "blue_solution_time": 19
  },
  "__v": 0
},{
  "_id": {
    "$oid": "62576f3670675a0004e7117f"
  },
  "data": [
    {
      "rt": 10494,
      "responses": "{\"Q0\":\" I consent to participate\"}",
      "trial_type": "survey-multi-choice",
      "trial_index": 0,
      "time_elapsed": 10508,
      "internal_node_id": "0.0-0.0",
      "responseType": "finish",
      "participantID": "t59b1f9yc8k5khqk888wps2wurgdayjq",
      "black_problems": [
        "LUBMEJD"
      ],
      "blue_problems": [
        "CAMHOMK"
      ],
      "blue_solution_time": 13
    },
    {
      "trial_type": "call-function",
      "trial_index": 1,
      "time_elapsed": 10519,
      "internal_node_id": "0.0-1.0",
      "responseType": "finish",
      "participantID": "t59b1f9yc8k5khqk888wps2wurgdayjq",
      "black_problems": [
        "LUBMEJD"
      ],
      "blue_problems": [
        "CAMHOMK"
      ],
      "blue_solution_time": 13
    },
    {
      "view_history": "[{\"page_index\":0,\"viewing_time\":7621},{\"page_index\":1,\"viewing_time\":13508},{\"page_index\":2,\"viewing_time\":7517}]",
      "rt": 28648,
      "trial_type": "instructions",
      "trial_index": 2,
      "time_elapsed": 39169,
      "internal_node_id": "0.0-2.0-0.0",
      "responseType": "finish",
      "participantID": "t59b1f9yc8k5khqk888wps2wurgdayjq",
      "black_problems": [
        "LUBMEJD"
      ],
      "blue_problems": [
        "CAMHOMK"
      ],
      "blue_solution_time": 13
    },
    {
      "rt": 8506,
      "responses": "{\"Q0\":\"The answer to the blue colored anagram will be shown after 2 minutes.\"}",
      "trial_type": "survey-multi-choice",
      "trial_index": 3,
      "time_elapsed": 47681,
      "internal_node_id": "0.0-2.0-1.0",
      "responseType": "finish",
      "participantID": "t59b1f9yc8k5khqk888wps2wurgdayjq",
      "black_problems": [
        "LUBMEJD"
      ],
      "blue_problems": [
        "CAMHOMK"
      ],
      "blue_solution_time": 13
    },
    {
      "rt": 4529,
      "stimulus": "<center><p>Now the <b>black</b> anagram will be shown to you.</p> <p>If you are not able to solve the anagram in <b>2 minutes</b>, you will be taken to the next screen.</p> <p>Press 'v' to view the anagram. </p></center>",
      "key_press": 86,
      "trial_type": "html-keyboard-response",
      "trial_index": 4,
      "time_elapsed": 52215,
      "internal_node_id": "0.0-3.0-0.0",
      "responseType": "finish",
      "participantID": "t59b1f9yc8k5khqk888wps2wurgdayjq",
      "black_problems": [
        "LUBMEJD"
      ],
      "blue_problems": [
        "CAMHOMK"
      ],
      "blue_solution_time": 13
    },
    {
      "rt": 6476,
      "responses": "{\"Q0\":\"jumbled\"}",
      "trial_type": "survey-text",
      "trial_index": 5,
      "time_elapsed": 58695,
      "internal_node_id": "0.0-3.0-1.0",
      "responseType": "finish",
      "participantID": "t59b1f9yc8k5khqk888wps2wurgdayjq",
      "black_problems": [
        "LUBMEJD"
      ],
      "blue_problems": [
        "CAMHOMK"
      ],
      "blue_solution_time": 13
    },
    {
      "rt": 8681,
      "responses": "{\"Q0\":4}",
      "trial_type": "survey-likert",
      "trial_index": 6,
      "time_elapsed": 67380,
      "internal_node_id": "0.0-3.0-3.0-0.0",
      "responseType": "finish",
      "participantID": "t59b1f9yc8k5khqk888wps2wurgdayjq",
      "black_problems": [
        "LUBMEJD"
      ],
      "blue_problems": [
        "CAMHOMK"
      ],
      "blue_solution_time": 13
    },
    {
      "rt": 1939,
      "stimulus": "<center><p>Now the <b style=\"color:#069\">blue</b> anagram will be shown to you.</p> <p>If you are not able to solve the anagram in <b>2 minutes</b>, the answer will be shown to you.</p> <p>Press 'v' to view the anagram. </p></center>",
      "key_press": 86,
      "trial_type": "html-keyboard-response",
      "trial_index": 7,
      "time_elapsed": 69343,
      "internal_node_id": "0.0-3.1-0.1",
      "responseType": "finish",
      "participantID": "t59b1f9yc8k5khqk888wps2wurgdayjq",
      "black_problems": [
        "LUBMEJD"
      ],
      "blue_problems": [
        "CAMHOMK"
      ],
      "blue_solution_time": 13
    },
    {
      "rt": 4247,
      "responses": "{\"Q0\":\"hammock\"}",
      "trial_type": "survey-text",
      "trial_index": 8,
      "time_elapsed": 73592,
      "internal_node_id": "0.0-3.1-1.1",
      "responseType": "finish",
      "participantID": "t59b1f9yc8k5khqk888wps2wurgdayjq",
      "black_problems": [
        "LUBMEJD"
      ],
      "blue_problems": [
        "CAMHOMK"
      ],
      "blue_solution_time": 13
    },
    {
      "rt": 1433,
      "stimulus": "<center>The answer is: <h2 style=\"color:#069\"><p>HAMMOCK</p></h2><br/><br/></center>",
      "button_pressed": "0",
      "trial_type": "html-button-response",
      "trial_index": 9,
      "time_elapsed": 75029,
      "internal_node_id": "0.0-3.1-2.1-0.1",
      "responseType": "finish",
      "participantID": "t59b1f9yc8k5khqk888wps2wurgdayjq",
      "black_problems": [
        "LUBMEJD"
      ],
      "blue_problems": [
        "CAMHOMK"
      ],
      "blue_solution_time": 13
    },
    {
      "rt": 4404,
      "responses": "{\"Q0\":4}",
      "trial_type": "survey-likert",
      "trial_index": 10,
      "time_elapsed": 79437,
      "internal_node_id": "0.0-3.1-3.1-0.1",
      "responseType": "finish",
      "participantID": "t59b1f9yc8k5khqk888wps2wurgdayjq",
      "black_problems": [
        "LUBMEJD"
      ],
      "blue_problems": [
        "CAMHOMK"
      ],
      "blue_solution_time": 13
    }
  ],
  "__v": 0
},{
  "_id": {
    "$oid": "62576f4f70675a0004e71180"
  },
  "data": {
    "responseType": "start",
    "participantID": "pwfuj1g8eg5y3kvoo06cvx8gyq91gdke",
    "black_problems": [
      "CAMHOMK"
    ],
    "blue_problems": [
      "LUBMEJD"
    ],
    "blue_solution_time": 17
  },
  "__v": 0
},{
  "_id": {
    "$oid": "62576f7370675a0004e71181"
  },
  "data": {
    "responseType": "start",
    "participantID": "2b4jdlxowhlluy88sxqdg5oja6kkzxkv",
    "black_problems": [
      "LUBMEJD"
    ],
    "blue_problems": [
      "AXPLINE"
    ],
    "blue_solution_time": 14
  },
  "__v": 0
},{
  "_id": {
    "$oid": "62576f7670675a0004e71182"
  },
  "data": {
    "responseType": "start",
    "participantID": "2f96461b7qlpa0nlr5rhbrtbcpn5ksky",
    "black_problems": [
      "CAMHOMK"
    ],
    "blue_problems": [
      "LUBMEJD"
    ],
    "blue_solution_time": 17
  },
  "__v": 0
},{
  "_id": {
    "$oid": "62576f9f70675a0004e71183"
  },
  "data": {
    "responseType": "start",
    "participantID": "zkxdof5j0ab22b0cywf6kajrck9noq1c",
    "black_problems": [
      "LUBMEJD"
    ],
    "blue_problems": [
      "CAMHOMK"
    ],
    "blue_solution_time": 17
  },
  "__v": 0
},{
  "_id": {
    "$oid": "62576fb470675a0004e71184"
  },
  "data": [
    {
      "rt": 9523,
      "responses": "{\"Q0\":\" I consent to participate\"}",
      "trial_type": "survey-multi-choice",
      "trial_index": 0,
      "time_elapsed": 9545,
      "internal_node_id": "0.0-0.0",
      "responseType": "finish",
      "participantID": "yye1krjt5ha8rngtnyedfo2onvhnwnmr",
      "black_problems": [
        "CAMHOMK"
      ],
      "blue_problems": [
        "AXPLINE"
      ],
      "blue_solution_time": 19
    },
    {
      "trial_type": "call-function",
      "trial_index": 1,
      "time_elapsed": 9555,
      "internal_node_id": "0.0-1.0",
      "responseType": "finish",
      "participantID": "yye1krjt5ha8rngtnyedfo2onvhnwnmr",
      "black_problems": [
        "CAMHOMK"
      ],
      "blue_problems": [
        "AXPLINE"
      ],
      "blue_solution_time": 19
    },
    {
      "view_history": "[{\"page_index\":0,\"viewing_time\":11892},{\"page_index\":1,\"viewing_time\":10408},{\"page_index\":2,\"viewing_time\":6764}]",
      "rt": 29067,
      "trial_type": "instructions",
      "trial_index": 2,
      "time_elapsed": 38623,
      "internal_node_id": "0.0-2.0-0.0",
      "responseType": "finish",
      "participantID": "yye1krjt5ha8rngtnyedfo2onvhnwnmr",
      "black_problems": [
        "CAMHOMK"
      ],
      "blue_problems": [
        "AXPLINE"
      ],
      "blue_solution_time": 19
    },
    {
      "rt": 24970,
      "responses": "{\"Q0\":\"The answer to the blue colored anagram will not be shown.\"}",
      "trial_type": "survey-multi-choice",
      "trial_index": 3,
      "time_elapsed": 63605,
      "internal_node_id": "0.0-2.0-1.0",
      "responseType": "finish",
      "participantID": "yye1krjt5ha8rngtnyedfo2onvhnwnmr",
      "black_problems": [
        "CAMHOMK"
      ],
      "blue_problems": [
        "AXPLINE"
      ],
      "blue_solution_time": 19
    },
    {
      "view_history": "[{\"page_index\":0,\"viewing_time\":9276},{\"page_index\":1,\"viewing_time\":17738},{\"page_index\":2,\"viewing_time\":5619}]",
      "rt": 32639,
      "trial_type": "instructions",
      "trial_index": 4,
      "time_elapsed": 100267,
      "internal_node_id": "0.0-2.1-0.1",
      "responseType": "finish",
      "participantID": "yye1krjt5ha8rngtnyedfo2onvhnwnmr",
      "black_problems": [
        "CAMHOMK"
      ],
      "blue_problems": [
        "AXPLINE"
      ],
      "blue_solution_time": 19
    },
    {
      "rt": 4021,
      "responses": "{\"Q0\":\"The answer to the blue colored anagram will be shown after 2 minutes.\"}",
      "trial_type": "survey-multi-choice",
      "trial_index": 5,
      "time_elapsed": 104304,
      "internal_node_id": "0.0-2.1-1.1",
      "responseType": "finish",
      "participantID": "yye1krjt5ha8rngtnyedfo2onvhnwnmr",
      "black_problems": [
        "CAMHOMK"
      ],
      "blue_problems": [
        "AXPLINE"
      ],
      "blue_solution_time": 19
    },
    {
      "rt": 6350,
      "stimulus": "<center><p>Now the <b style=\"color:#069\">blue</b> anagram will be shown to you.</p> <p>If you are not able to solve the anagram in <b>2 minutes</b>, the answer will be shown to you.</p> <p>Press 'v' to view the anagram. </p></center>",
      "key_press": 86,
      "trial_type": "html-keyboard-response",
      "trial_index": 6,
      "time_elapsed": 110662,
      "internal_node_id": "0.0-3.0-0.0",
      "responseType": "finish",
      "participantID": "yye1krjt5ha8rngtnyedfo2onvhnwnmr",
      "black_problems": [
        "CAMHOMK"
      ],
      "blue_problems": [
        "AXPLINE"
      ],
      "blue_solution_time": 19
    },
    {
      "rt": 19002,
      "responses": "{\"Q0\":\"\"}",
      "trial_type": "survey-text",
      "trial_index": 7,
      "time_elapsed": 129673,
      "internal_node_id": "0.0-3.0-1.0",
      "responseType": "finish",
      "participantID": "yye1krjt5ha8rngtnyedfo2onvhnwnmr",
      "black_problems": [
        "CAMHOMK"
      ],
      "blue_problems": [
        "AXPLINE"
      ],
      "blue_solution_time": 19
    },
    {
      "rt": 4073,
      "stimulus": "<center>The answer is: <h2 style=\"color:#069\"><p>EXPLAIN</p></h2><br/><br/></center>",
      "button_pressed": "0",
      "trial_type": "html-button-response",
      "trial_index": 8,
      "time_elapsed": 133759,
      "internal_node_id": "0.0-3.0-2.0-0.0",
      "responseType": "finish",
      "participantID": "yye1krjt5ha8rngtnyedfo2onvhnwnmr",
      "black_problems": [
        "CAMHOMK"
      ],
      "blue_problems": [
        "AXPLINE"
      ],
      "blue_solution_time": 19
    },
    {
      "rt": 13505,
      "responses": "{\"Q0\":4}",
      "trial_type": "survey-likert",
      "trial_index": 9,
      "time_elapsed": 147273,
      "internal_node_id": "0.0-3.0-3.0-0.0",
      "responseType": "finish",
      "participantID": "yye1krjt5ha8rngtnyedfo2onvhnwnmr",
      "black_problems": [
        "CAMHOMK"
      ],
      "blue_problems": [
        "AXPLINE"
      ],
      "blue_solution_time": 19
    },
    {
      "rt": 2245,
      "stimulus": "<center><p>Now the <b>black</b> anagram will be shown to you.</p> <p>If you are not able to solve the anagram in <b>2 minutes</b>, you will be taken to the next screen.</p> <p>Press 'v' to view the anagram. </p></center>",
      "key_press": 86,
      "trial_type": "html-keyboard-response",
      "trial_index": 10,
      "time_elapsed": 149542,
      "internal_node_id": "0.0-3.1-0.1",
      "responseType": "finish",
      "participantID": "yye1krjt5ha8rngtnyedfo2onvhnwnmr",
      "black_problems": [
        "CAMHOMK"
      ],
      "blue_problems": [
        "AXPLINE"
      ],
      "blue_solution_time": 19
    },
    {
      "rt": 5908,
      "responses": "{\"Q0\":\"hammock\"}",
      "trial_type": "survey-text",
      "trial_index": 11,
      "time_elapsed": 155457,
      "internal_node_id": "0.0-3.1-1.1",
      "responseType": "finish",
      "participantID": "yye1krjt5ha8rngtnyedfo2onvhnwnmr",
      "black_problems": [
        "CAMHOMK"
      ],
      "blue_problems": [
        "AXPLINE"
      ],
      "blue_solution_time": 19
    },
    {
      "rt": 9434,
      "responses": "{\"Q0\":5}",
      "trial_type": "survey-likert",
      "trial_index": 12,
      "time_elapsed": 164898,
      "internal_node_id": "0.0-3.1-3.1-0.1",
      "responseType": "finish",
      "participantID": "yye1krjt5ha8rngtnyedfo2onvhnwnmr",
      "black_problems": [
        "CAMHOMK"
      ],
      "blue_problems": [
        "AXPLINE"
      ],
      "blue_solution_time": 19
    }
  ],
  "__v": 0
},{
  "_id": {
    "$oid": "62576fc770675a0004e71185"
  },
  "data": [
    {
      "rt": 3762,
      "responses": "{\"Q0\":\" I consent to participate\"}",
      "trial_type": "survey-multi-choice",
      "trial_index": 0,
      "time_elapsed": 3767,
      "internal_node_id": "0.0-0.0",
      "responseType": "finish",
      "participantID": "pwfuj1g8eg5y3kvoo06cvx8gyq91gdke",
      "black_problems": [
        "CAMHOMK"
      ],
      "blue_problems": [
        "LUBMEJD"
      ],
      "blue_solution_time": 17
    },
    {
      "trial_type": "call-function",
      "trial_index": 1,
      "time_elapsed": 3769,
      "internal_node_id": "0.0-1.0",
      "responseType": "finish",
      "participantID": "pwfuj1g8eg5y3kvoo06cvx8gyq91gdke",
      "black_problems": [
        "CAMHOMK"
      ],
      "blue_problems": [
        "LUBMEJD"
      ],
      "blue_solution_time": 17
    },
    {
      "view_history": "[{\"page_index\":0,\"viewing_time\":7938},{\"page_index\":1,\"viewing_time\":13407},{\"page_index\":2,\"viewing_time\":21722}]",
      "rt": 43067,
      "trial_type": "instructions",
      "trial_index": 2,
      "time_elapsed": 46837,
      "internal_node_id": "0.0-2.0-0.0",
      "responseType": "finish",
      "participantID": "pwfuj1g8eg5y3kvoo06cvx8gyq91gdke",
      "black_problems": [
        "CAMHOMK"
      ],
      "blue_problems": [
        "LUBMEJD"
      ],
      "blue_solution_time": 17
    },
    {
      "rt": 18953,
      "responses": "{\"Q0\":\"The answer to the blue colored anagram will be shown after 2 minutes.\"}",
      "trial_type": "survey-multi-choice",
      "trial_index": 3,
      "time_elapsed": 65791,
      "internal_node_id": "0.0-2.0-1.0",
      "responseType": "finish",
      "participantID": "pwfuj1g8eg5y3kvoo06cvx8gyq91gdke",
      "black_problems": [
        "CAMHOMK"
      ],
      "blue_problems": [
        "LUBMEJD"
      ],
      "blue_solution_time": 17
    },
    {
      "rt": 5260,
      "stimulus": "<center><p>Now the <b>black</b> anagram will be shown to you.</p> <p>If you are not able to solve the anagram in <b>2 minutes</b>, you will be taken to the next screen.</p> <p>Press 'v' to view the anagram. </p></center>",
      "key_press": 86,
      "trial_type": "html-keyboard-response",
      "trial_index": 4,
      "time_elapsed": 71052,
      "internal_node_id": "0.0-3.0-0.0",
      "responseType": "finish",
      "participantID": "pwfuj1g8eg5y3kvoo06cvx8gyq91gdke",
      "black_problems": [
        "CAMHOMK"
      ],
      "blue_problems": [
        "LUBMEJD"
      ],
      "blue_solution_time": 17
    },
    {
      "rt": 27288,
      "responses": "{\"Q0\":\"HAMMOCK\"}",
      "trial_type": "survey-text",
      "trial_index": 5,
      "time_elapsed": 98343,
      "internal_node_id": "0.0-3.0-1.0",
      "responseType": "finish",
      "participantID": "pwfuj1g8eg5y3kvoo06cvx8gyq91gdke",
      "black_problems": [
        "CAMHOMK"
      ],
      "blue_problems": [
        "LUBMEJD"
      ],
      "blue_solution_time": 17
    },
    {
      "rt": 6308,
      "responses": "{\"Q0\":6}",
      "trial_type": "survey-likert",
      "trial_index": 6,
      "time_elapsed": 104651,
      "internal_node_id": "0.0-3.0-3.0-0.0",
      "responseType": "finish",
      "participantID": "pwfuj1g8eg5y3kvoo06cvx8gyq91gdke",
      "black_problems": [
        "CAMHOMK"
      ],
      "blue_problems": [
        "LUBMEJD"
      ],
      "blue_solution_time": 17
    },
    {
      "rt": 3049,
      "stimulus": "<center><p>Now the <b style=\"color:#069\">blue</b> anagram will be shown to you.</p> <p>If you are not able to solve the anagram in <b>2 minutes</b>, the answer will be shown to you.</p> <p>Press 'v' to view the anagram. </p></center>",
      "key_press": 86,
      "trial_type": "html-keyboard-response",
      "trial_index": 7,
      "time_elapsed": 107705,
      "internal_node_id": "0.0-3.1-0.1",
      "responseType": "finish",
      "participantID": "pwfuj1g8eg5y3kvoo06cvx8gyq91gdke",
      "black_problems": [
        "CAMHOMK"
      ],
      "blue_problems": [
        "LUBMEJD"
      ],
      "blue_solution_time": 17
    },
    {
      "rt": 11836,
      "responses": "{\"Q0\":\"JUMBLED\"}",
      "trial_type": "survey-text",
      "trial_index": 8,
      "time_elapsed": 119543,
      "internal_node_id": "0.0-3.1-1.1",
      "responseType": "finish",
      "participantID": "pwfuj1g8eg5y3kvoo06cvx8gyq91gdke",
      "black_problems": [
        "CAMHOMK"
      ],
      "blue_problems": [
        "LUBMEJD"
      ],
      "blue_solution_time": 17
    },
    {
      "rt": 1499,
      "stimulus": "<center>The answer is: <h2 style=\"color:#069\"><p>JUMBLED</p></h2><br/><br/></center>",
      "button_pressed": "0",
      "trial_type": "html-button-response",
      "trial_index": 9,
      "time_elapsed": 121043,
      "internal_node_id": "0.0-3.1-2.1-0.1",
      "responseType": "finish",
      "participantID": "pwfuj1g8eg5y3kvoo06cvx8gyq91gdke",
      "black_problems": [
        "CAMHOMK"
      ],
      "blue_problems": [
        "LUBMEJD"
      ],
      "blue_solution_time": 17
    },
    {
      "rt": 2727,
      "responses": "{\"Q0\":5}",
      "trial_type": "survey-likert",
      "trial_index": 10,
      "time_elapsed": 123771,
      "internal_node_id": "0.0-3.1-3.1-0.1",
      "responseType": "finish",
      "participantID": "pwfuj1g8eg5y3kvoo06cvx8gyq91gdke",
      "black_problems": [
        "CAMHOMK"
      ],
      "blue_problems": [
        "LUBMEJD"
      ],
      "blue_solution_time": 17
    }
  ],
  "__v": 0
},{
  "_id": {
    "$oid": "62576fd070675a0004e71186"
  },
  "data": {
    "responseType": "start",
    "participantID": "sf526edsouxlmkxso1bn09yyslu5pa0z",
    "black_problems": [
      "CAMHOMK"
    ],
    "blue_problems": [
      "AYUGNHT"
    ],
    "blue_solution_time": 10
  },
  "__v": 0
},{
  "_id": {
    "$oid": "62576fd670675a0004e71187"
  },
  "data": {
    "responseType": "start",
    "participantID": "8mblvkd0kwql38kd3ufq1twt3j7egybm",
    "black_problems": [
      "LUBMEJD"
    ],
    "blue_problems": [
      "CAMHOMK"
    ],
    "blue_solution_time": 13
  },
  "__v": 0
},{
  "_id": {
    "$oid": "62576fdb70675a0004e71188"
  },
  "data": [
    {
      "rt": 7464,
      "responses": "{\"Q0\":\" I consent to participate\"}",
      "trial_type": "survey-multi-choice",
      "trial_index": 0,
      "time_elapsed": 7484,
      "internal_node_id": "0.0-0.0",
      "responseType": "finish",
      "participantID": "2b4jdlxowhlluy88sxqdg5oja6kkzxkv",
      "black_problems": [
        "LUBMEJD"
      ],
      "blue_problems": [
        "AXPLINE"
      ],
      "blue_solution_time": 14
    },
    {
      "trial_type": "call-function",
      "trial_index": 1,
      "time_elapsed": 7501,
      "internal_node_id": "0.0-1.0",
      "responseType": "finish",
      "participantID": "2b4jdlxowhlluy88sxqdg5oja6kkzxkv",
      "black_problems": [
        "LUBMEJD"
      ],
      "blue_problems": [
        "AXPLINE"
      ],
      "blue_solution_time": 14
    },
    {
      "view_history": "[{\"page_index\":0,\"viewing_time\":6046},{\"page_index\":1,\"viewing_time\":5971},{\"page_index\":2,\"viewing_time\":5802}]",
      "rt": 17846,
      "trial_type": "instructions",
      "trial_index": 2,
      "time_elapsed": 25350,
      "internal_node_id": "0.0-2.0-0.0",
      "responseType": "finish",
      "participantID": "2b4jdlxowhlluy88sxqdg5oja6kkzxkv",
      "black_problems": [
        "LUBMEJD"
      ],
      "blue_problems": [
        "AXPLINE"
      ],
      "blue_solution_time": 14
    },
    {
      "rt": 2736,
      "responses": "{\"Q0\":\"The answer to the blue colored anagram will be shown after 2 minutes.\"}",
      "trial_type": "survey-multi-choice",
      "trial_index": 3,
      "time_elapsed": 28095,
      "internal_node_id": "0.0-2.0-1.0",
      "responseType": "finish",
      "participantID": "2b4jdlxowhlluy88sxqdg5oja6kkzxkv",
      "black_problems": [
        "LUBMEJD"
      ],
      "blue_problems": [
        "AXPLINE"
      ],
      "blue_solution_time": 14
    },
    {
      "rt": 1203,
      "stimulus": "<center><p>Now the <b style=\"color:#069\">blue</b> anagram will be shown to you.</p> <p>If you are not able to solve the anagram in <b>2 minutes</b>, the answer will be shown to you.</p> <p>Press 'v' to view the anagram. </p></center>",
      "key_press": 86,
      "trial_type": "html-keyboard-response",
      "trial_index": 4,
      "time_elapsed": 29310,
      "internal_node_id": "0.0-3.0-0.0",
      "responseType": "finish",
      "participantID": "2b4jdlxowhlluy88sxqdg5oja6kkzxkv",
      "black_problems": [
        "LUBMEJD"
      ],
