[{
  "_id": {
    "$oid": "625230e437ac5e0004f57cd1"
  },
  "data": {
    "responseType": "start",
    "participantID": "fk9scsbwolk9wouwugvdwk6hg1vqhclz",
    "black_problems": [
      "RODLLA"
    ],
    "blue_problems": [
      "RETLET"
    ]
  },
  "__v": 0
},{
  "_id": {
    "$oid": "625230fb37ac5e0004f57cd2"
  },
  "data": {
    "responseType": "start",
    "participantID": "tdr6crteap227x2dm6mktb4gqacsv186",
    "black_problems": [
      "RETLET"
    ],
    "blue_problems": [
      "LYLE"
    ]
  },
  "__v": 0
},{
  "_id": {
    "$oid": "6252312f37ac5e0004f57cd3"
  },
  "data": {
    "responseType": "start",
    "participantID": "r3pt9kav78lbjdskpwwqjhmjtauhx4ps",
    "black_problems": [
      "LYLE"
    ],
    "blue_problems": [
      "RETLET"
    ]
  },
  "__v": 0
},{
  "_id": {
    "$oid": "6252315037ac5e0004f57cd4"
  },
  "data": [
    {
      "rt": 13408,
      "responses": "{\"Q0\":\" I consent to participate\"}",
      "trial_type": "survey-multi-choice",
      "trial_index": 0,
      "time_elapsed": 13419,
      "internal_node_id": "0.0-0.0",
      "responseType": "finish",
      "participantID": "tdr6crteap227x2dm6mktb4gqacsv186",
      "black_problems": [
        "RETLET"
      ],
      "blue_problems": [
        "LYLE"
      ]
    },
    {
      "trial_type": "call-function",
      "trial_index": 1,
      "time_elapsed": 13425,
      "internal_node_id": "0.0-1.0",
      "responseType": "finish",
      "participantID": "tdr6crteap227x2dm6mktb4gqacsv186",
      "black_problems": [
        "RETLET"
      ],
      "blue_problems": [
        "LYLE"
      ]
    },
    {
      "view_history": "[{\"page_index\":0,\"viewing_time\":10219},{\"page_index\":1,\"viewing_time\":11228},{\"page_index\":2,\"viewing_time\":7087}]",
      "rt": 28535,
      "trial_type": "instructions",
      "trial_index": 2,
      "time_elapsed": 41960,
      "internal_node_id": "0.0-2.0-0.0",
      "responseType": "finish",
      "participantID": "tdr6crteap227x2dm6mktb4gqacsv186",
      "black_problems": [
        "RETLET"
      ],
      "blue_problems": [
        "LYLE"
      ]
    },
    {
      "rt": 10611,
      "responses": "{\"Q0\":\"The answer to the blue colored anagram will be shown after 1 minute.\"}",
      "trial_type": "survey-multi-choice",
      "trial_index": 3,
      "time_elapsed": 52575,
      "internal_node_id": "0.0-2.0-1.0",
      "responseType": "finish",
      "participantID": "tdr6crteap227x2dm6mktb4gqacsv186",
      "black_problems": [
        "RETLET"
      ],
      "blue_problems": [
        "LYLE"
      ]
    },
    {
      "rt": 5355,
      "stimulus": "<center><p>Now the <b>black</b> anagram will be shown to you.</p> <p>If you are not able to solve the anagram in <b>1 minute</b>, you will be taken to the next screen.</p> <p>Press 'v' to view the anagram. </p></center>",
      "key_press": 86,
      "trial_type": "html-keyboard-response",
      "trial_index": 4,
      "time_elapsed": 57936,
      "internal_node_id": "0.0-3.0-0.0",
      "responseType": "finish",
      "participantID": "tdr6crteap227x2dm6mktb4gqacsv186",
      "black_problems": [
        "RETLET"
      ],
      "blue_problems": [
        "LYLE"
      ]
    },
    {
      "rt": 8115,
      "responses": "{\"Q0\":\"LETTER\"}",
      "trial_type": "survey-text",
      "trial_index": 5,
      "time_elapsed": 66053,
      "internal_node_id": "0.0-3.0-1.0",
      "responseType": "finish",
      "participantID": "tdr6crteap227x2dm6mktb4gqacsv186",
      "black_problems": [
        "RETLET"
      ],
      "blue_problems": [
        "LYLE"
      ]
    },
    {
      "rt": 11640,
      "responses": "{\"Q0\":1}",
      "trial_type": "survey-likert",
      "trial_index": 6,
      "time_elapsed": 77696,
      "internal_node_id": "0.0-3.0-3.0-0.0",
      "responseType": "finish",
      "participantID": "tdr6crteap227x2dm6mktb4gqacsv186",
      "black_problems": [
        "RETLET"
      ],
      "blue_problems": [
        "LYLE"
      ]
    },
    {
      "rt": 3812,
      "stimulus": "<center><p>Now the <b style=\"color:#069\">blue</b> anagram will be shown to you.</p> <p>If you are not able to solve the anagram in <b>1 minute</b>, the answer will be shown to you.</p> <p>Press 'v' to view the anagram. </p></center>",
      "key_press": 86,
      "trial_type": "html-keyboard-response",
      "trial_index": 7,
      "time_elapsed": 81525,
      "internal_node_id": "0.0-3.1-0.1",
      "responseType": "finish",
      "participantID": "tdr6crteap227x2dm6mktb4gqacsv186",
      "black_problems": [
        "RETLET"
      ],
      "blue_problems": [
        "LYLE"
      ]
    },
    {
      "rt": 12473,
      "responses": "{\"Q0\":\"YELL\"}",
      "trial_type": "survey-text",
      "trial_index": 8,
      "time_elapsed": 93999,
      "internal_node_id": "0.0-3.1-1.1",
      "responseType": "finish",
      "participantID": "tdr6crteap227x2dm6mktb4gqacsv186",
      "black_problems": [
        "RETLET"
      ],
      "blue_problems": [
        "LYLE"
      ]
    },
    {
      "rt": 1596,
      "stimulus": "<center>The answer is: <h2 style=\"color:#069\"><p>YELL</p></h2><br/><br/></center>",
      "button_pressed": "0",
      "trial_type": "html-button-response",
      "trial_index": 9,
      "time_elapsed": 95597,
      "internal_node_id": "0.0-3.1-2.1-0.1",
      "responseType": "finish",
      "participantID": "tdr6crteap227x2dm6mktb4gqacsv186",
      "black_problems": [
        "RETLET"
      ],
      "blue_problems": [
        "LYLE"
      ]
    },
    {
      "rt": 3337,
      "responses": "{\"Q0\":4}",
      "trial_type": "survey-likert",
      "trial_index": 10,
      "time_elapsed": 98936,
      "internal_node_id": "0.0-3.1-3.1-0.1",
      "responseType": "finish",
      "participantID": "tdr6crteap227x2dm6mktb4gqacsv186",
      "black_problems": [
        "RETLET"
      ],
      "blue_problems": [
        "LYLE"
      ]
    }
  ],
  "__v": 0
},{
  "_id": {
    "$oid": "6252317237ac5e0004f57cd5"
  },
  "data": [
    {
      "rt": 21565,
      "responses": "{\"Q0\":\" I consent to participate\"}",
      "trial_type": "survey-multi-choice",
      "trial_index": 0,
      "time_elapsed": 21583,
      "internal_node_id": "0.0-0.0",
      "responseType": "finish",
      "participantID": "fk9scsbwolk9wouwugvdwk6hg1vqhclz",
      "black_problems": [
        "RODLLA"
      ],
      "blue_problems": [
        "RETLET"
      ]
    },
    {
      "trial_type": "call-function",
      "trial_index": 1,
      "time_elapsed": 21591,
      "internal_node_id": "0.0-1.0",
      "responseType": "finish",
      "participantID": "fk9scsbwolk9wouwugvdwk6hg1vqhclz",
      "black_problems": [
        "RODLLA"
      ],
      "blue_problems": [
        "RETLET"
      ]
    },
    {
      "view_history": "[{\"page_index\":0,\"viewing_time\":12189},{\"page_index\":1,\"viewing_time\":19573},{\"page_index\":2,\"viewing_time\":7441}]",
      "rt": 39203,
      "trial_type": "instructions",
      "trial_index": 2,
      "time_elapsed": 60795,
      "internal_node_id": "0.0-2.0-0.0",
      "responseType": "finish",
      "participantID": "fk9scsbwolk9wouwugvdwk6hg1vqhclz",
      "black_problems": [
        "RODLLA"
      ],
      "blue_problems": [
        "RETLET"
      ]
    },
    {
      "rt": 23886,
      "responses": "{\"Q0\":\"The answer to the blue colored anagram will be shown after 1 minute.\"}",
      "trial_type": "survey-multi-choice",
      "trial_index": 3,
      "time_elapsed": 84686,
      "internal_node_id": "0.0-2.0-1.0",
      "responseType": "finish",
      "participantID": "fk9scsbwolk9wouwugvdwk6hg1vqhclz",
      "black_problems": [
        "RODLLA"
      ],
      "blue_problems": [
        "RETLET"
      ]
    },
    {
      "rt": 15213,
      "stimulus": "<center><p>Now the <b style=\"color:#069\">blue</b> anagram will be shown to you.</p> <p>If you are not able to solve the anagram in <b>1 minute</b>, the answer will be shown to you.</p> <p>Press 'v' to view the anagram. </p></center>",
      "key_press": 86,
      "trial_type": "html-keyboard-response",
      "trial_index": 4,
      "time_elapsed": 99904,
      "internal_node_id": "0.0-3.0-0.0",
      "responseType": "finish",
      "participantID": "fk9scsbwolk9wouwugvdwk6hg1vqhclz",
      "black_problems": [
        "RODLLA"
      ],
      "blue_problems": [
        "RETLET"
      ]
    },
    {
      "rt": 12813,
      "responses": "{\"Q0\":\"LETTER\"}",
      "trial_type": "survey-text",
      "trial_index": 5,
      "time_elapsed": 112720,
      "internal_node_id": "0.0-3.0-1.0",
      "responseType": "finish",
      "participantID": "fk9scsbwolk9wouwugvdwk6hg1vqhclz",
      "black_problems": [
        "RODLLA"
      ],
      "blue_problems": [
        "RETLET"
      ]
    },
    {
      "rt": 1703,
      "stimulus": "<center>The answer is: <h2 style=\"color:#069\"><p>LETTER</p></h2><br/><br/></center>",
      "button_pressed": "0",
      "trial_type": "html-button-response",
      "trial_index": 6,
      "time_elapsed": 114426,
      "internal_node_id": "0.0-3.0-2.0-0.0",
      "responseType": "finish",
      "participantID": "fk9scsbwolk9wouwugvdwk6hg1vqhclz",
      "black_problems": [
        "RODLLA"
      ],
      "blue_problems": [
        "RETLET"
      ]
    },
    {
      "rt": 23357,
      "responses": "{\"Q0\":4}",
      "trial_type": "survey-likert",
      "trial_index": 7,
      "time_elapsed": 137787,
      "internal_node_id": "0.0-3.0-3.0-0.0",
      "responseType": "finish",
      "participantID": "fk9scsbwolk9wouwugvdwk6hg1vqhclz",
      "black_problems": [
        "RODLLA"
      ],
      "blue_problems": [
        "RETLET"
      ]
    },
    {
      "rt": 4987,
      "stimulus": "<center><p>Now the <b>black</b> anagram will be shown to you.</p> <p>If you are not able to solve the anagram in <b>1 minute</b>, you will be taken to the next screen.</p> <p>Press 'v' to view the anagram. </p></center>",
      "key_press": 86,
      "trial_type": "html-keyboard-response",
      "trial_index": 8,
      "time_elapsed": 142808,
      "internal_node_id": "0.0-3.1-0.1",
      "responseType": "finish",
      "participantID": "fk9scsbwolk9wouwugvdwk6hg1vqhclz",
      "black_problems": [
        "RODLLA"
      ],
      "blue_problems": [
        "RETLET"
      ]
    },
    {
      "rt": 7869,
      "responses": "{\"Q0\":\"DOLLAR\"}",
      "trial_type": "survey-text",
      "trial_index": 9,
      "time_elapsed": 150680,
      "internal_node_id": "0.0-3.1-1.1",
      "responseType": "finish",
      "participantID": "fk9scsbwolk9wouwugvdwk6hg1vqhclz",
      "black_problems": [
        "RODLLA"
      ],
      "blue_problems": [
        "RETLET"
      ]
    },
    {
      "rt": 12629,
      "responses": "{\"Q0\":4}",
      "trial_type": "survey-likert",
      "trial_index": 10,
      "time_elapsed": 163312,
      "internal_node_id": "0.0-3.1-3.1-0.1",
      "responseType": "finish",
      "participantID": "fk9scsbwolk9wouwugvdwk6hg1vqhclz",
      "black_problems": [
        "RODLLA"
      ],
      "blue_problems": [
        "RETLET"
      ]
    }
  ],
  "__v": 0
},{
  "_id": {
    "$oid": "6252318937ac5e0004f57cd6"
  },
  "data": {
    "responseType": "start",
    "participantID": "v5v65d3eyazem7qb9tzcqdk5tf9f1u21",
    "black_problems": [
      "LYLE"
    ],
    "blue_problems": [
      "RODLLA"
    ]
  },
  "__v": 0
},{
  "_id": {
    "$oid": "6252318e37ac5e0004f57cd7"
  },
  "data": {
    "responseType": "start",
    "participantID": "nqushgjaxy03v9gcqt1dnh4m6uu3d6go",
    "black_problems": [
      "HSOADW"
    ],
    "blue_problems": [
      "ECELT"
    ]
  },
  "__v": 0
},{
  "_id": {
    "$oid": "625231a037ac5e0004f57cd8"
  },
  "data": {
    "responseType": "start",
    "participantID": "p0odo59jdrjsjnmlqnkjvle9muf9j9kc",
    "black_problems": [
      "YUOEJRN"
    ],
    "blue_problems": [
      "ECELT"
    ]
  },
  "__v": 0
},{
  "_id": {
    "$oid": "625231b237ac5e0004f57cd9"
  },
  "data": [
    {
      "rt": 3641,
      "responses": "{\"Q0\":\" I consent to participate\"}",
      "trial_type": "survey-multi-choice",
      "trial_index": 0,
      "time_elapsed": 3667,
      "internal_node_id": "0.0-0.0",
      "responseType": "finish",
      "participantID": "r3pt9kav78lbjdskpwwqjhmjtauhx4ps",
      "black_problems": [
        "LYLE"
      ],
      "blue_problems": [
        "RETLET"
      ]
    },
    {
      "trial_type": "call-function",
      "trial_index": 1,
      "time_elapsed": 3673,
      "internal_node_id": "0.0-1.0",
      "responseType": "finish",
      "participantID": "r3pt9kav78lbjdskpwwqjhmjtauhx4ps",
      "black_problems": [
        "LYLE"
      ],
      "blue_problems": [
        "RETLET"
      ]
    },
    {
      "view_history": "[{\"page_index\":0,\"viewing_time\":7881},{\"page_index\":1,\"viewing_time\":13634},{\"page_index\":2,\"viewing_time\":6030}]",
      "rt": 27545,
      "trial_type": "instructions",
      "trial_index": 2,
      "time_elapsed": 31219,
      "internal_node_id": "0.0-2.0-0.0",
      "responseType": "finish",
      "participantID": "r3pt9kav78lbjdskpwwqjhmjtauhx4ps",
      "black_problems": [
        "LYLE"
      ],
      "blue_problems": [
        "RETLET"
      ]
    },
    {
      "rt": 20352,
      "responses": "{\"Q0\":\"The answer to the black colored anagram will be shown after 2 minutes.\"}",
      "trial_type": "survey-multi-choice",
      "trial_index": 3,
      "time_elapsed": 51573,
      "internal_node_id": "0.0-2.0-1.0",
      "responseType": "finish",
      "participantID": "r3pt9kav78lbjdskpwwqjhmjtauhx4ps",
      "black_problems": [
        "LYLE"
      ],
      "blue_problems": [
        "RETLET"
      ]
    },
    {
      "view_history": "[{\"page_index\":0,\"viewing_time\":6175},{\"page_index\":1,\"viewing_time\":9930},{\"page_index\":2,\"viewing_time\":5256}]",
      "rt": 21362,
      "trial_type": "instructions",
      "trial_index": 4,
      "time_elapsed": 75574,
      "internal_node_id": "0.0-2.1-0.1",
      "responseType": "finish",
      "participantID": "r3pt9kav78lbjdskpwwqjhmjtauhx4ps",
      "black_problems": [
        "LYLE"
      ],
      "blue_problems": [
        "RETLET"
      ]
    },
    {
      "rt": 11842,
      "responses": "{\"Q0\":\"The answer to the blue colored anagram will be shown after 1 minute.\"}",
      "trial_type": "survey-multi-choice",
      "trial_index": 5,
      "time_elapsed": 87419,
      "internal_node_id": "0.0-2.1-1.1",
      "responseType": "finish",
      "participantID": "r3pt9kav78lbjdskpwwqjhmjtauhx4ps",
      "black_problems": [
        "LYLE"
      ],
      "blue_problems": [
        "RETLET"
      ]
    },
    {
      "rt": 4176,
      "stimulus": "<center><p>Now the <b style=\"color:#069\">blue</b> anagram will be shown to you.</p> <p>If you are not able to solve the anagram in <b>1 minute</b>, the answer will be shown to you.</p> <p>Press 'v' to view the anagram. </p></center>",
      "key_press": 86,
      "trial_type": "html-keyboard-response",
      "trial_index": 6,
      "time_elapsed": 91601,
      "internal_node_id": "0.0-3.0-0.0",
      "responseType": "finish",
      "participantID": "r3pt9kav78lbjdskpwwqjhmjtauhx4ps",
      "black_problems": [
        "LYLE"
      ],
      "blue_problems": [
        "RETLET"
      ]
    },
    {
      "rt": 13402,
      "responses": "{\"Q0\":\"LETTER\"}",
      "trial_type": "survey-text",
      "trial_index": 7,
      "time_elapsed": 105005,
      "internal_node_id": "0.0-3.0-1.0",
      "responseType": "finish",
      "participantID": "r3pt9kav78lbjdskpwwqjhmjtauhx4ps",
      "black_problems": [
        "LYLE"
      ],
      "blue_problems": [
        "RETLET"
      ]
    },
    {
      "rt": 1345,
      "stimulus": "<center>The answer is: <h2 style=\"color:#069\"><p>LETTER</p></h2><br/><br/></center>",
      "button_pressed": "0",
      "trial_type": "html-button-response",
      "trial_index": 8,
      "time_elapsed": 106352,
      "internal_node_id": "0.0-3.0-2.0-0.0",
      "responseType": "finish",
      "participantID": "r3pt9kav78lbjdskpwwqjhmjtauhx4ps",
      "black_problems": [
        "LYLE"
      ],
      "blue_problems": [
        "RETLET"
      ]
    },
    {
      "rt": 10759,
      "responses": "{\"Q0\":1}",
      "trial_type": "survey-likert",
      "trial_index": 9,
      "time_elapsed": 117113,
      "internal_node_id": "0.0-3.0-3.0-0.0",
      "responseType": "finish",
      "participantID": "r3pt9kav78lbjdskpwwqjhmjtauhx4ps",
      "black_problems": [
        "LYLE"
      ],
      "blue_problems": [
        "RETLET"
      ]
    },
    {
      "rt": 4452,
      "stimulus": "<center><p>Now the <b>black</b> anagram will be shown to you.</p> <p>If you are not able to solve the anagram in <b>1 minute</b>, you will be taken to the next screen.</p> <p>Press 'v' to view the anagram. </p></center>",
      "key_press": 86,
      "trial_type": "html-keyboard-response",
      "trial_index": 10,
      "time_elapsed": 121576,
      "internal_node_id": "0.0-3.1-0.1",
      "responseType": "finish",
      "participantID": "r3pt9kav78lbjdskpwwqjhmjtauhx4ps",
      "black_problems": [
        "LYLE"
      ],
      "blue_problems": [
        "RETLET"
      ]
    },
    {
      "rt": 9474,
      "responses": "{\"Q0\":\"YELL\"}",
      "trial_type": "survey-text",
      "trial_index": 11,
      "time_elapsed": 131052,
      "internal_node_id": "0.0-3.1-1.1",
      "responseType": "finish",
      "participantID": "r3pt9kav78lbjdskpwwqjhmjtauhx4ps",
      "black_problems": [
        "LYLE"
      ],
      "blue_problems": [
        "RETLET"
      ]
    },
    {
      "rt": 3355,
      "responses": "{\"Q0\":0}",
      "trial_type": "survey-likert",
      "trial_index": 12,
      "time_elapsed": 134409,
      "internal_node_id": "0.0-3.1-3.1-0.1",
      "responseType": "finish",
      "participantID": "r3pt9kav78lbjdskpwwqjhmjtauhx4ps",
      "black_problems": [
        "LYLE"
      ],
      "blue_problems": [
        "RETLET"
      ]
    }
  ],
  "__v": 0
},{
  "_id": {
    "$oid": "625231c737ac5e0004f57cda"
  },
  "data": [
    {
      "rt": 10839,
      "responses": "{\"Q0\":\" I consent to participate\"}",
      "trial_type": "survey-multi-choice",
      "trial_index": 0,
      "time_elapsed": 10847,
      "internal_node_id": "0.0-0.0",
      "responseType": "finish",
      "participantID": "v5v65d3eyazem7qb9tzcqdk5tf9f1u21",
      "black_problems": [
        "LYLE"
      ],
      "blue_problems": [
        "RODLLA"
      ]
    },
    {
      "trial_type": "call-function",
      "trial_index": 1,
      "time_elapsed": 10851,
      "internal_node_id": "0.0-1.0",
      "responseType": "finish",
      "participantID": "v5v65d3eyazem7qb9tzcqdk5tf9f1u21",
      "black_problems": [
        "LYLE"
      ],
      "blue_problems": [
        "RODLLA"
      ]
    },
    {
      "view_history": "[{\"page_index\":0,\"viewing_time\":7870},{\"page_index\":1,\"viewing_time\":8684},{\"page_index\":2,\"viewing_time\":5657}]",
      "rt": 22212,
      "trial_type": "instructions",
      "trial_index": 2,
      "time_elapsed": 33063,
      "internal_node_id": "0.0-2.0-0.0",
      "responseType": "finish",
      "participantID": "v5v65d3eyazem7qb9tzcqdk5tf9f1u21",
      "black_problems": [
        "LYLE"
      ],
      "blue_problems": [
        "RODLLA"
      ]
    },
    {
      "rt": 12739,
      "responses": "{\"Q0\":\"The answer to the blue colored anagram will be shown after 1 minute.\"}",
      "trial_type": "survey-multi-choice",
      "trial_index": 3,
      "time_elapsed": 45805,
      "internal_node_id": "0.0-2.0-1.0",
      "responseType": "finish",
      "participantID": "v5v65d3eyazem7qb9tzcqdk5tf9f1u21",
      "black_problems": [
        "LYLE"
      ],
      "blue_problems": [
        "RODLLA"
      ]
    },
    {
      "rt": 4356,
      "stimulus": "<center><p>Now the <b style=\"color:#069\">blue</b> anagram will be shown to you.</p> <p>If you are not able to solve the anagram in <b>1 minute</b>, the answer will be shown to you.</p> <p>Press 'v' to view the anagram. </p></center>",
      "key_press": 86,
      "trial_type": "html-keyboard-response",
      "trial_index": 4,
      "time_elapsed": 50162,
      "internal_node_id": "0.0-3.0-0.0",
      "responseType": "finish",
      "participantID": "v5v65d3eyazem7qb9tzcqdk5tf9f1u21",
      "black_problems": [
        "LYLE"
      ],
      "blue_problems": [
        "RODLLA"
      ]
    },
    {
      "rt": 4840,
      "responses": "{\"Q0\":\"DOLLAR\"}",
      "trial_type": "survey-text",
      "trial_index": 5,
      "time_elapsed": 55004,
      "internal_node_id": "0.0-3.0-1.0",
      "responseType": "finish",
      "participantID": "v5v65d3eyazem7qb9tzcqdk5tf9f1u21",
      "black_problems": [
        "LYLE"
      ],
      "blue_problems": [
        "RODLLA"
      ]
    },
    {
      "rt": 1118,
      "stimulus": "<center>The answer is: <h2 style=\"color:#069\"><p>DOLLAR</p></h2><br/><br/></center>",
      "button_pressed": "0",
      "trial_type": "html-button-response",
      "trial_index": 6,
      "time_elapsed": 56123,
      "internal_node_id": "0.0-3.0-2.0-0.0",
      "responseType": "finish",
      "participantID": "v5v65d3eyazem7qb9tzcqdk5tf9f1u21",
      "black_problems": [
        "LYLE"
      ],
      "blue_problems": [
        "RODLLA"
      ]
    },
    {
      "rt": 7804,
      "responses": "{\"Q0\":4}",
      "trial_type": "survey-likert",
      "trial_index": 7,
      "time_elapsed": 63928,
      "internal_node_id": "0.0-3.0-3.0-0.0",
      "responseType": "finish",
      "participantID": "v5v65d3eyazem7qb9tzcqdk5tf9f1u21",
      "black_problems": [
        "LYLE"
      ],
      "blue_problems": [
        "RODLLA"
      ]
    },
    {
      "rt": 1709,
      "stimulus": "<center><p>Now the <b>black</b> anagram will be shown to you.</p> <p>If you are not able to solve the anagram in <b>1 minute</b>, you will be taken to the next screen.</p> <p>Press 'v' to view the anagram. </p></center>",
      "key_press": 86,
      "trial_type": "html-keyboard-response",
      "trial_index": 8,
      "time_elapsed": 65647,
      "internal_node_id": "0.0-3.1-0.1",
      "responseType": "finish",
      "participantID": "v5v65d3eyazem7qb9tzcqdk5tf9f1u21",
      "black_problems": [
        "LYLE"
      ],
      "blue_problems": [
        "RODLLA"
      ]
    },
    {
      "rt": 4511,
      "responses": "{\"Q0\":\"YELL\"}",
      "trial_type": "survey-text",
      "trial_index": 9,
      "time_elapsed": 70159,
      "internal_node_id": "0.0-3.1-1.1",
      "responseType": "finish",
      "participantID": "v5v65d3eyazem7qb9tzcqdk5tf9f1u21",
      "black_problems": [
        "LYLE"
      ],
      "blue_problems": [
        "RODLLA"
      ]
    },
    {
      "rt": 2902,
      "responses": "{\"Q0\":1}",
      "trial_type": "survey-likert",
      "trial_index": 10,
      "time_elapsed": 73063,
      "internal_node_id": "0.0-3.1-3.1-0.1",
      "responseType": "finish",
      "participantID": "v5v65d3eyazem7qb9tzcqdk5tf9f1u21",
      "black_problems": [
        "LYLE"
      ],
      "blue_problems": [
        "RODLLA"
      ]
    }
  ],
  "__v": 0
},{
  "_id": {
    "$oid": "6252320637ac5e0004f57cdb"
  },
  "data": [
    {
      "rt": 6463,
      "responses": "{\"Q0\":\" I consent to participate\"}",
      "trial_type": "survey-multi-choice",
      "trial_index": 0,
      "time_elapsed": 6466,
      "internal_node_id": "0.0-0.0",
      "responseType": "finish",
      "participantID": "nqushgjaxy03v9gcqt1dnh4m6uu3d6go",
      "black_problems": [
        "HSOADW"
      ],
      "blue_problems": [
        "ECELT"
      ]
    },
    {
      "trial_type": "call-function",
      "trial_index": 1,
      "time_elapsed": 6468,
      "internal_node_id": "0.0-1.0",
      "responseType": "finish",
      "participantID": "nqushgjaxy03v9gcqt1dnh4m6uu3d6go",
      "black_problems": [
        "HSOADW"
      ],
      "blue_problems": [
        "ECELT"
      ]
    },
    {
      "view_history": "[{\"page_index\":0,\"viewing_time\":10439},{\"page_index\":1,\"viewing_time\":11910},{\"page_index\":2,\"viewing_time\":7539}]",
      "rt": 29888,
      "trial_type": "instructions",
      "trial_index": 2,
      "time_elapsed": 36356,
      "internal_node_id": "0.0-2.0-0.0",
      "responseType": "finish",
      "participantID": "nqushgjaxy03v9gcqt1dnh4m6uu3d6go",
      "black_problems": [
        "HSOADW"
      ],
      "blue_problems": [
        "ECELT"
      ]
    },
    {
      "rt": 8862,
      "responses": "{\"Q0\":\"The answer to the blue colored anagram will be shown after 1 minute.\"}",
      "trial_type": "survey-multi-choice",
      "trial_index": 3,
      "time_elapsed": 45219,
      "internal_node_id": "0.0-2.0-1.0",
      "responseType": "finish",
      "participantID": "nqushgjaxy03v9gcqt1dnh4m6uu3d6go",
      "black_problems": [
        "HSOADW"
      ],
      "blue_problems": [
        "ECELT"
      ]
    },
    {
      "rt": 3932,
      "stimulus": "<center><p>Now the <b style=\"color:#069\">blue</b> anagram will be shown to you.</p> <p>If you are not able to solve the anagram in <b>1 minute</b>, the answer will be shown to you.</p> <p>Press 'v' to view the anagram. </p></center>",
      "key_press": 86,
      "trial_type": "html-keyboard-response",
      "trial_index": 4,
      "time_elapsed": 49152,
      "internal_node_id": "0.0-3.0-0.0",
      "responseType": "finish",
      "participantID": "nqushgjaxy03v9gcqt1dnh4m6uu3d6go",
      "black_problems": [
        "HSOADW"
      ],
      "blue_problems": [
        "ECELT"
      ]
    },
    {
      "rt": 15007,
      "responses": "{\"Q0\":\"\"}",
      "trial_type": "survey-text",
      "trial_index": 5,
      "time_elapsed": 64161,
      "internal_node_id": "0.0-3.0-1.0",
      "responseType": "finish",
      "participantID": "nqushgjaxy03v9gcqt1dnh4m6uu3d6go",
      "black_problems": [
        "HSOADW"
      ],
      "blue_problems": [
        "ECELT"
      ]
    },
    {
      "rt": 1613,
      "stimulus": "<center>The answer is: <h2 style=\"color:#069\"><p>ELECT</p></h2><br/><br/></center>",
      "button_pressed": "0",
      "trial_type": "html-button-response",
      "trial_index": 6,
      "time_elapsed": 65774,
      "internal_node_id": "0.0-3.0-2.0-0.0",
      "responseType": "finish",
      "participantID": "nqushgjaxy03v9gcqt1dnh4m6uu3d6go",
      "black_problems": [
        "HSOADW"
      ],
      "blue_problems": [
        "ECELT"
      ]
    },
    {
      "rt": 10983,
      "responses": "{\"Q0\":6}",
      "trial_type": "survey-likert",
      "trial_index": 7,
      "time_elapsed": 76758,
      "internal_node_id": "0.0-3.0-3.0-0.0",
      "responseType": "finish",
      "participantID": "nqushgjaxy03v9gcqt1dnh4m6uu3d6go",
      "black_problems": [
        "HSOADW"
      ],
      "blue_problems": [
        "ECELT"
      ]
    },
    {
      "rt": 2021,
      "stimulus": "<center><p>Now the <b>black</b> anagram will be shown to you.</p> <p>If you are not able to solve the anagram in <b>1 minute</b>, you will be taken to the next screen.</p> <p>Press 'v' to view the anagram. </p></center>",
      "key_press": 86,
      "trial_type": "html-keyboard-response",
      "trial_index": 8,
      "time_elapsed": 78784,
      "internal_node_id": "0.0-3.1-0.1",
      "responseType": "finish",
      "participantID": "nqushgjaxy03v9gcqt1dnh4m6uu3d6go",
      "black_problems": [
        "HSOADW"
      ],
      "blue_problems": [
        "ECELT"
      ]
    },
    {
      "rt": 40276,
      "responses": "{\"Q0\":\"shadow\"}",
      "trial_type": "survey-text",
      "trial_index": 9,
      "time_elapsed": 119060,
      "internal_node_id": "0.0-3.1-1.1",
      "responseType": "finish",
      "participantID": "nqushgjaxy03v9gcqt1dnh4m6uu3d6go",
      "black_problems": [
        "HSOADW"
      ],
      "blue_problems": [
        "ECELT"
      ]
    },
    {
      "rt": 7101,
      "responses": "{\"Q0\":6}",
      "trial_type": "survey-likert",
      "trial_index": 10,
      "time_elapsed": 126163,
      "internal_node_id": "0.0-3.1-3.1-0.1",
      "responseType": "finish",
      "participantID": "nqushgjaxy03v9gcqt1dnh4m6uu3d6go",
      "black_problems": [
        "HSOADW"
      ],
      "blue_problems": [
        "ECELT"
      ]
    }
  ],
  "__v": 0
},{
  "_id": {
    "$oid": "6252320837ac5e0004f57cdc"
  },
  "data": {
    "responseType": "start",
    "participantID": "6uyzvt8olm86w8xah0wjkbbyd502spa1",
    "black_problems": [
      "RODLLA"
    ],
    "blue_problems": [
      "YUOEJRN"
    ]
  },
  "__v": 0
},{
  "_id": {
    "$oid": "6252323237ac5e0004f57cdd"
  },
  "data": [
    {
      "rt": 4448,
      "responses": "{\"Q0\":\" I consent to participate\"}",
      "trial_type": "survey-multi-choice",
      "trial_index": 0,
      "time_elapsed": 4470,
      "internal_node_id": "0.0-0.0",
      "responseType": "finish",
      "participantID": "p0odo59jdrjsjnmlqnkjvle9muf9j9kc",
      "black_problems": [
        "YUOEJRN"
      ],
      "blue_problems": [
        "ECELT"
      ]
    },
    {
      "trial_type": "call-function",
      "trial_index": 1,
      "time_elapsed": 4474,
      "internal_node_id": "0.0-1.0",
      "responseType": "finish",
      "participantID": "p0odo59jdrjsjnmlqnkjvle9muf9j9kc",
      "black_problems": [
        "YUOEJRN"
      ],
      "blue_problems": [
        "ECELT"
      ]
    },
    {
      "view_history": "[{\"page_index\":0,\"viewing_time\":6002},{\"page_index\":1,\"viewing_time\":7909},{\"page_index\":2,\"viewing_time\":62189}]",
      "rt": 76100,
      "trial_type": "instructions",
      "trial_index": 2,
      "time_elapsed": 80574,
      "internal_node_id": "0.0-2.0-0.0",
      "responseType": "finish",
      "participantID": "p0odo59jdrjsjnmlqnkjvle9muf9j9kc",
      "black_problems": [
        "YUOEJRN"
      ],
      "blue_problems": [
        "ECELT"
      ]
    },
    {
      "rt": 42099,
      "responses": "{\"Q0\":\"The answer to the blue colored anagram will be shown after 1 minute.\"}",
      "trial_type": "survey-multi-choice",
      "trial_index": 3,
      "time_elapsed": 122676,
      "internal_node_id": "0.0-2.0-1.0",
      "responseType": "finish",
      "participantID": "p0odo59jdrjsjnmlqnkjvle9muf9j9kc",
      "black_problems": [
        "YUOEJRN"
      ],
      "blue_problems": [
        "ECELT"
      ]
    },
    {
      "rt": 2878,
      "stimulus": "<center><p>Now the <b style=\"color:#069\">blue</b> anagram will be shown to you.</p> <p>If you are not able to solve the anagram in <b>1 minute</b>, the answer will be shown to you.</p> <p>Press 'v' to view the anagram. </p></center>",
      "key_press": 86,
      "trial_type": "html-keyboard-response",
      "trial_index": 4,
      "time_elapsed": 125558,
      "internal_node_id": "0.0-3.0-0.0",
      "responseType": "finish",
      "participantID": "p0odo59jdrjsjnmlqnkjvle9muf9j9kc",
      "black_problems": [
        "YUOEJRN"
      ],
      "blue_problems": [
        "ECELT"
      ]
    },
    {
      "rt": 7213,
      "responses": "{\"Q0\":\"cleet\"}",
      "trial_type": "survey-text",
      "trial_index": 5,
      "time_elapsed": 132771,
      "internal_node_id": "0.0-3.0-1.0",
      "responseType": "finish",
      "participantID": "p0odo59jdrjsjnmlqnkjvle9muf9j9kc",
      "black_problems": [
        "YUOEJRN"
      ],
      "blue_problems": [
        "ECELT"
      ]
    },
    {
      "rt": 1422,
      "stimulus": "<center>The answer is: <h2 style=\"color:#069\"><p>ELECT</p></h2><br/><br/></center>",
      "button_pressed": "0",
      "trial_type": "html-button-response",
      "trial_index": 6,
      "time_elapsed": 134195,
      "internal_node_id": "0.0-3.0-2.0-0.0",
      "responseType": "finish",
      "participantID": "p0odo59jdrjsjnmlqnkjvle9muf9j9kc",
      "black_problems": [
        "YUOEJRN"
      ],
      "blue_problems": [
        "ECELT"
      ]
    },
    {
      "rt": 6306,
      "responses": "{\"Q0\":5}",
      "trial_type": "survey-likert",
      "trial_index": 7,
      "time_elapsed": 140504,
      "internal_node_id": "0.0-3.0-3.0-0.0",
      "responseType": "finish",
      "participantID": "p0odo59jdrjsjnmlqnkjvle9muf9j9kc",
      "black_problems": [
        "YUOEJRN"
      ],
      "blue_problems": [
        "ECELT"
      ]
    },
    {
      "rt": 1334,
      "stimulus": "<center><p>Now the <b>black</b> anagram will be shown to you.</p> <p>If you are not able to solve the anagram in <b>1 minute</b>, you will be taken to the next screen.</p> <p>Press 'v' to view the anagram. </p></center>",
      "key_press": 86,
      "trial_type": "html-keyboard-response",
      "trial_index": 8,
      "time_elapsed": 141846,
      "internal_node_id": "0.0-3.1-0.1",
      "responseType": "finish",
      "participantID": "p0odo59jdrjsjnmlqnkjvle9muf9j9kc",
      "black_problems": [
        "YUOEJRN"
      ],
      "blue_problems": [
        "ECELT"
      ]
    },
    {
      "rt": 3236,
      "responses": "{\"Q0\":\"journey\"}",
      "trial_type": "survey-text",
      "trial_index": 9,
      "time_elapsed": 145083,
      "internal_node_id": "0.0-3.1-1.1",
      "responseType": "finish",
      "participantID": "p0odo59jdrjsjnmlqnkjvle9muf9j9kc",
      "black_problems": [
        "YUOEJRN"
      ],
      "blue_problems": [
        "ECELT"
      ]
    },
    {
      "rt": 5217,
      "responses": "{\"Q0\":2}",
      "trial_type": "survey-likert",
      "trial_index": 10,
      "time_elapsed": 150302,
      "internal_node_id": "0.0-3.1-3.1-0.1",
      "responseType": "finish",
      "participantID": "p0odo59jdrjsjnmlqnkjvle9muf9j9kc",
      "black_problems": [
        "YUOEJRN"
      ],
      "blue_problems": [
        "ECELT"
      ]
    }
  ],
  "__v": 0
},{
  "_id": {
    "$oid": "6252325e37ac5e0004f57cde"
  },
  "data": {
    "responseType": "start",
    "participantID": "3q2nwm5tt6hvaj9c3a4bqztypo373bjb",
    "black_problems": [
      "RODLLA"
    ],
    "blue_problems": [
      "ECELT"
    ]
  },
  "__v": 0
},{
  "_id": {
    "$oid": "6252328337ac5e0004f57cdf"
  },
  "data": [
    {
      "rt": 8824,
      "responses": "{\"Q0\":\" I consent to participate\"}",
      "trial_type": "survey-multi-choice",
      "trial_index": 0,
      "time_elapsed": 8826,
      "internal_node_id": "0.0-0.0",
      "responseType": "finish",
      "participantID": "6uyzvt8olm86w8xah0wjkbbyd502spa1",
      "black_problems": [
        "RODLLA"
      ],
      "blue_problems": [
        "YUOEJRN"
      ]
    },
    {
      "trial_type": "call-function",
      "trial_index": 1,
      "time_elapsed": 8828,
      "internal_node_id": "0.0-1.0",
      "responseType": "finish",
      "participantID": "6uyzvt8olm86w8xah0wjkbbyd502spa1",
      "black_problems": [
        "RODLLA"
      ],
      "blue_problems": [
        "YUOEJRN"
      ]
    },
    {
      "view_history": "[{\"page_index\":0,\"viewing_time\":12744},{\"page_index\":1,\"viewing_time\":45444},{\"page_index\":2,\"viewing_time\":6477}]",
      "rt": 64666,
      "trial_type": "instructions",
      "trial_index": 2,
      "time_elapsed": 73494,
      "internal_node_id": "0.0-2.0-0.0",
      "responseType": "finish",
      "participantID": "6uyzvt8olm86w8xah0wjkbbyd502spa1",
      "black_problems": [
        "RODLLA"
      ],
      "blue_problems": [
        "YUOEJRN"
      ]
    },
    {
      "rt": 12560,
      "responses": "{\"Q0\":\"The answer to the blue colored anagram will be shown after 1 minute.\"}",
      "trial_type": "survey-multi-choice",
      "trial_index": 3,
      "time_elapsed": 86058,
      "internal_node_id": "0.0-2.0-1.0",
      "responseType": "finish",
      "participantID": "6uyzvt8olm86w8xah0wjkbbyd502spa1",
      "black_problems": [
        "RODLLA"
      ],
      "blue_problems": [
        "YUOEJRN"
      ]
    },
    {
      "rt": 4766,
      "stimulus": "<center><p>Now the <b style=\"color:#069\">blue</b> anagram will be shown to you.</p> <p>If you are not able to solve the anagram in <b>1 minute</b>, the answer will be shown to you.</p> <p>Press 'v' to view the anagram. </p></center>",
      "key_press": 86,
      "trial_type": "html-keyboard-response",
      "trial_index": 4,
      "time_elapsed": 90826,
      "internal_node_id": "0.0-3.0-0.0",
      "responseType": "finish",
      "participantID": "6uyzvt8olm86w8xah0wjkbbyd502spa1",
      "black_problems": [
        "RODLLA"
      ],
      "blue_problems": [
        "YUOEJRN"
      ]
    },
    {
      "rt": 15002,
      "responses": "{\"Q0\":\"J\"}",
      "trial_type": "survey-text",
      "trial_index": 5,
      "time_elapsed": 105828,
      "internal_node_id": "0.0-3.0-1.0",
      "responseType": "finish",
      "participantID": "6uyzvt8olm86w8xah0wjkbbyd502spa1",
      "black_problems": [
        "RODLLA"
      ],
      "blue_problems": [
        "YUOEJRN"
      ]
    },
    {
      "rt": 2589,
      "stimulus": "<center>The answer is: <h2 style=\"color:#069\"><p>JOURNEY</p></h2><br/><br/></center>",
      "button_pressed": "0",
      "trial_type": "html-button-response",
      "trial_index": 6,
      "time_elapsed": 108419,
      "internal_node_id": "0.0-3.0-2.0-0.0",
      "responseType": "finish",
      "participantID": "6uyzvt8olm86w8xah0wjkbbyd502spa1",
      "black_problems": [
        "RODLLA"
      ],
      "blue_problems": [
        "YUOEJRN"
      ]
    },
    {
      "rt": 12740,
      "responses": "{\"Q0\":0}",
      "trial_type": "survey-likert",
      "trial_index": 7,
      "time_elapsed": 121160,
      "internal_node_id": "0.0-3.0-3.0-0.0",
      "responseType": "finish",
      "participantID": "6uyzvt8olm86w8xah0wjkbbyd502spa1",
      "black_problems": [
        "RODLLA"
      ],
      "blue_problems": [
        "YUOEJRN"
      ]
    },
    {
      "rt": 3815,
      "stimulus": "<center><p>Now the <b>black</b> anagram will be shown to you.</p> <p>If you are not able to solve the anagram in <b>1 minute</b>, you will be taken to the next screen.</p> <p>Press 'v' to view the anagram. </p></center>",
      "key_press": 86,
      "trial_type": "html-keyboard-response",
      "trial_index": 8,
      "time_elapsed": 124986,
      "internal_node_id": "0.0-3.1-0.1",
      "responseType": "finish",
      "participantID": "6uyzvt8olm86w8xah0wjkbbyd502spa1",
      "black_problems": [
        "RODLLA"
      ],
      "blue_problems": [
        "YUOEJRN"
      ]
    },
    {
      "rt": 5059,
      "responses": "{\"Q0\":\"Dollar\"}",
      "trial_type": "survey-text",
      "trial_index": 9,
      "time_elapsed": 130046,
      "internal_node_id": "0.0-3.1-1.1",
      "responseType": "finish",
      "participantID": "6uyzvt8olm86w8xah0wjkbbyd502spa1",
      "black_problems": [
        "RODLLA"
      ],
      "blue_problems": [
        "YUOEJRN"
      ]
    },
    {
      "rt": 2186,
      "responses": "{\"Q0\":3}",
      "trial_type": "survey-likert",
      "trial_index": 10,
      "time_elapsed": 132232,
      "internal_node_id": "0.0-3.1-3.1-0.1",
      "responseType": "finish",
      "participantID": "6uyzvt8olm86w8xah0wjkbbyd502spa1",
      "black_problems": [
        "RODLLA"
      ],
      "blue_problems": [
        "YUOEJRN"
      ]
    }
  ],
  "__v": 0
},{
  "_id": {
    "$oid": "625232c137ac5e0004f57ce0"
  },
  "data": {
    "responseType": "start",
    "participantID": "5jv72tc0nw9hg4zpw2unfg6cr2qfb6n9",
    "black_problems": [
      "YUOEJRN"
    ],
    "blue_problems": [
      "RODLLA"
    ]
  },
  "__v": 0
},{
  "_id": {
    "$oid": "625232e237ac5e0004f57ce1"
  },
  "data": [
    {
      "rt": 29363,
      "responses": "{\"Q0\":\" I consent to participate\"}",
      "trial_type": "survey-multi-choice",
      "trial_index": 0,
      "time_elapsed": 29379,
      "internal_node_id": "0.0-0.0",
      "responseType": "finish",
      "participantID": "3q2nwm5tt6hvaj9c3a4bqztypo373bjb",
      "black_problems": [
        "RODLLA"
      ],
      "blue_problems": [
        "ECELT"
      ]
    },
    {
      "trial_type": "call-function",
      "trial_index": 1,
      "time_elapsed": 29383,
      "internal_node_id": "0.0-1.0",
      "responseType": "finish",
      "participantID": "3q2nwm5tt6hvaj9c3a4bqztypo373bjb",
      "black_problems": [
        "RODLLA"
      ],
      "blue_problems": [
        "ECELT"
      ]
    },
    {
      "view_history": "[{\"page_index\":0,\"viewing_time\":13707},{\"page_index\":1,\"viewing_time\":10937},{\"page_index\":2,\"viewing_time\":6391}]",
      "rt": 31035,
      "trial_type": "instructions",
      "trial_index": 2,
      "time_elapsed": 60418,
      "internal_node_id": "0.0-2.0-0.0",
      "responseType": "finish",
      "participantID": "3q2nwm5tt6hvaj9c3a4bqztypo373bjb",
      "black_problems": [
        "RODLLA"
      ],
      "blue_problems": [
        "ECELT"
      ]
    },
    {
      "rt": 17998,
      "responses": "{\"Q0\":\"The answer to the blue colored anagram will be shown after 1 minute.\"}",
      "trial_type": "survey-multi-choice",
      "trial_index": 3,
      "time_elapsed": 78419,
      "internal_node_id": "0.0-2.0-1.0",
      "responseType": "finish",
      "participantID": "3q2nwm5tt6hvaj9c3a4bqztypo373bjb",
      "black_problems": [
        "RODLLA"
      ],
      "blue_problems": [
        "ECELT"
      ]
    },
    {
      "rt": 5612,
      "stimulus": "<center><p>Now the <b style=\"color:#069\">blue</b> anagram will be shown to you.</p> <p>If you are not able to solve the anagram in <b>1 minute</b>, the answer will be shown to you.</p> <p>Press 'v' to view the anagram. </p></center>",
      "key_press": 86,
      "trial_type": "html-keyboard-response",
      "trial_index": 4,
      "time_elapsed": 84033,
      "internal_node_id": "0.0-3.0-0.0",
      "responseType": "finish",
      "participantID": "3q2nwm5tt6hvaj9c3a4bqztypo373bjb",
      "black_problems": [
        "RODLLA"
      ],
      "blue_problems": [
        "ECELT"
      ]
    },
    {
      "rt": 15000,
      "responses": "{\"Q0\":\"cleet\"}",
      "trial_type": "survey-text",
      "trial_index": 5,
      "time_elapsed": 99035,
      "internal_node_id": "0.0-3.0-1.0",
      "responseType": "finish",
      "participantID": "3q2nwm5tt6hvaj9c3a4bqztypo373bjb",
      "black_problems": [
        "RODLLA"
      ],
      "blue_problems": [
        "ECELT"
      ]
    },
    {
      "rt": 2022,
      "stimulus": "<center>The answer is: <h2 style=\"color:#069\"><p>ELECT</p></h2><br/><br/></center>",
      "button_pressed": "0",
      "trial_type": "html-button-response",
      "trial_index": 6,
      "time_elapsed": 101059,
      "internal_node_id": "0.0-3.0-2.0-0.0",
      "responseType": "finish",
      "participantID": "3q2nwm5tt6hvaj9c3a4bqztypo373bjb",
      "black_problems": [
        "RODLLA"
      ],
      "blue_problems": [
        "ECELT"
      ]
    },
    {
      "rt": 20247,
      "responses": "{\"Q0\":0}",
      "trial_type": "survey-likert",
      "trial_index": 7,
      "time_elapsed": 121307,
      "internal_node_id": "0.0-3.0-3.0-0.0",
      "responseType": "finish",
      "participantID": "3q2nwm5tt6hvaj9c3a4bqztypo373bjb",
      "black_problems": [
        "RODLLA"
      ],
      "blue_problems": [
        "ECELT"
      ]
    },
    {
      "rt": 8275,
      "stimulus": "<center><p>Now the <b>black</b> anagram will be shown to you.</p> <p>If you are not able to solve the anagram in <b>1 minute</b>, you will be taken to the next screen.</p> <p>Press 'v' to view the anagram. </p></center>",
      "key_press": 86,
      "trial_type": "html-keyboard-response",
      "trial_index": 8,
      "time_elapsed": 129591,
      "internal_node_id": "0.0-3.1-0.1",
      "responseType": "finish",
      "participantID": "3q2nwm5tt6hvaj9c3a4bqztypo373bjb",
      "black_problems": [
        "RODLLA"
      ],
      "blue_problems": [
        "ECELT"
      ]
    },
    {
      "rt": 27203,
      "responses": "{\"Q0\":\"dollar\"}",
      "trial_type": "survey-text",
      "trial_index": 9,
      "time_elapsed": 156794,
      "internal_node_id": "0.0-3.1-1.1",
      "responseType": "finish",
      "participantID": "3q2nwm5tt6hvaj9c3a4bqztypo373bjb",
      "black_problems": [
        "RODLLA"
      ],
      "blue_problems": [
        "ECELT"
      ]
    },
    {
      "rt": 4183,
      "responses": "{\"Q0\":4}",
      "trial_type": "survey-likert",
      "trial_index": 10,
      "time_elapsed": 160978,
      "internal_node_id": "0.0-3.1-3.1-0.1",
      "responseType": "finish",
      "participantID": "3q2nwm5tt6hvaj9c3a4bqztypo373bjb",
      "black_problems": [
        "RODLLA"
      ],
      "blue_problems": [
        "ECELT"
      ]
    }
  ],
  "__v": 0
},{
  "_id": {
    "$oid": "6252330f37ac5e0004f57ce2"
  },
  "data": [
    {
      "rt": 4616,
      "responses": "{\"Q0\":\" I consent to participate\"}",
      "trial_type": "survey-multi-choice",
      "trial_index": 0,
      "time_elapsed": 4639,
      "internal_node_id": "0.0-0.0",
      "responseType": "finish",
      "participantID": "5jv72tc0nw9hg4zpw2unfg6cr2qfb6n9",
      "black_problems": [
        "YUOEJRN"
      ],
      "blue_problems": [
        "RODLLA"
      ]
    },
    {
      "trial_type": "call-function",
      "trial_index": 1,
      "time_elapsed": 4646,
      "internal_node_id": "0.0-1.0",
      "responseType": "finish",
      "participantID": "5jv72tc0nw9hg4zpw2unfg6cr2qfb6n9",
      "black_problems": [
        "YUOEJRN"
      ],
      "blue_problems": [
        "RODLLA"
      ]
    },
    {
      "view_history": "[{\"page_index\":0,\"viewing_time\":8873},{\"page_index\":1,\"viewing_time\":1806},{\"page_index\":0,\"viewing_time\":4282},{\"page_index\":1,\"viewing_time\":7864},{\"page_index\":2,\"viewing_time\":5540}]",
      "rt": 28365,
      "trial_type": "instructions",
      "trial_index": 2,
      "time_elapsed": 33011,
      "internal_node_id": "0.0-2.0-0.0",
      "responseType": "finish",
      "participantID": "5jv72tc0nw9hg4zpw2unfg6cr2qfb6n9",
      "black_problems": [
        "YUOEJRN"
      ],
      "blue_problems": [
        "RODLLA"
      ]
    },
    {
      "rt": 15763,
      "responses": "{\"Q0\":\"The answer to the blue colored anagram will be shown after 1 minute.\"}",
      "trial_type": "survey-multi-choice",
      "trial_index": 3,
      "time_elapsed": 48777,
      "internal_node_id": "0.0-2.0-1.0",
      "responseType": "finish",
      "participantID": "5jv72tc0nw9hg4zpw2unfg6cr2qfb6n9",
      "black_problems": [
        "YUOEJRN"
      ],
      "blue_problems": [
        "RODLLA"
      ]
    },
    {
      "rt": 3226,
      "stimulus": "<center><p>Now the <b>black</b> anagram will be shown to you.</p> <p>If you are not able to solve the anagram in <b>1 minute</b>, you will be taken to the next screen.</p> <p>Press 'v' to view the anagram. </p></center>",
      "key_press": 86,
      "trial_type": "html-keyboard-response",
      "trial_index": 4,
      "time_elapsed": 52008,
      "internal_node_id": "0.0-3.0-0.0",
      "responseType": "finish",
      "participantID": "5jv72tc0nw9hg4zpw2unfg6cr2qfb6n9",
      "black_problems": [
        "YUOEJRN"
      ],
      "blue_problems": [
        "RODLLA"
      ]
    },
    {
      "rt": 4896,
      "responses": "{\"Q0\":\"journey\"}",
      "trial_type": "survey-text",
      "trial_index": 5,
      "time_elapsed": 56905,
      "internal_node_id": "0.0-3.0-1.0",
      "responseType": "finish",
      "participantID": "5jv72tc0nw9hg4zpw2unfg6cr2qfb6n9",
      "black_problems": [
        "YUOEJRN"
      ],
      "blue_problems": [
        "RODLLA"
      ]
    },
    {
      "rt": 16098,
      "responses": "{\"Q0\":4}",
      "trial_type": "survey-likert",
      "trial_index": 6,
      "time_elapsed": 73006,
      "internal_node_id": "0.0-3.0-3.0-0.0",
      "responseType": "finish",
      "participantID": "5jv72tc0nw9hg4zpw2unfg6cr2qfb6n9",
      "black_problems": [
        "YUOEJRN"
      ],
      "blue_problems": [
        "RODLLA"
      ]
    },
    {
      "rt": 1680,
      "stimulus": "<center><p>Now the <b style=\"color:#069\">blue</b> anagram will be shown to you.</p> <p>If you are not able to solve the anagram in <b>1 minute</b>, the answer will be shown to you.</p> <p>Press 'v' to view the anagram. </p></center>",
      "key_press": 86,
      "trial_type": "html-keyboard-response",
      "trial_index": 7,
      "time_elapsed": 74698,
      "internal_node_id": "0.0-3.1-0.1",
      "responseType": "finish",
      "participantID": "5jv72tc0nw9hg4zpw2unfg6cr2qfb6n9",
      "black_problems": [
        "YUOEJRN"
      ],
      "blue_problems": [
        "RODLLA"
      ]
    },
    {
      "rt": 2820,
      "responses": "{\"Q0\":\"dollar\"}",
      "trial_type": "survey-text",
      "trial_index": 8,
      "time_elapsed": 77520,
      "internal_node_id": "0.0-3.1-1.1",
      "responseType": "finish",
      "participantID": "5jv72tc0nw9hg4zpw2unfg6cr2qfb6n9",
      "black_problems": [
        "YUOEJRN"
      ],
      "blue_problems": [
        "RODLLA"
      ]
    },
    {
      "rt": 1056,
      "stimulus": "<center>The answer is: <h2 style=\"color:#069\"><p>DOLLAR</p></h2><br/><br/></center>",
      "button_pressed": "0",
      "trial_type": "html-button-response",
      "trial_index": 9,
      "time_elapsed": 78578,
      "internal_node_id": "0.0-3.1-2.1-0.1",
      "responseType": "finish",
      "participantID": "5jv72tc0nw9hg4zpw2unfg6cr2qfb6n9",
      "black_problems": [
        "YUOEJRN"
      ],
      "blue_problems": [
        "RODLLA"
      ]
    },
    {
      "rt": 3720,
      "responses": "{\"Q0\":3}",
      "trial_type": "survey-likert",
      "trial_index": 10,
      "time_elapsed": 82299,
      "internal_node_id": "0.0-3.1-3.1-0.1",
      "responseType": "finish",
      "participantID": "5jv72tc0nw9hg4zpw2unfg6cr2qfb6n9",
      "black_problems": [
        "YUOEJRN"
      ],
      "blue_problems": [
        "RODLLA"
      ]
    }
  ],
  "__v": 0
},{
  "_id": {
    "$oid": "6252333d37ac5e0004f57ce3"
  },
  "data": {
    "responseType": "start",
    "participantID": "gga4nyqtdbwyreoc0aq15uckzy3o4hwf",
    "black_problems": [
      "RODLLA"
    ],
    "blue_problems": [
      "ECELT"
    ]
  },
  "__v": 0
},{
  "_id": {
    "$oid": "6252336637ac5e0004f57ce4"
  },
  "data": {
    "responseType": "start",
    "participantID": "1dduxg9xvwuzo5vdzr7dbrza6crv6qhr",
    "black_problems": [
      "RETLET"
    ],
    "blue_problems": [
      "YUOEJRN"
    ]
  },
  "__v": 0
},{
  "_id": {
    "$oid": "6252339237ac5e0004f57ce5"
  },
  "data": {
    "responseType": "start",
    "participantID": "q4k48fdzeofeua1f2wt9zouemf6w8y4g",
    "black_problems": [
      "YUOEJRN"
    ],
    "blue_problems": [
      "RODLLA"
    ]
  },
  "__v": 0
},{
  "_id": {
    "$oid": "6252339537ac5e0004f57ce6"
  },
  "data": {
    "responseType": "start",
    "participantID": "skerqwogsw1m5v2rlopt6lkqosv4274q",
    "black_problems": [
      "RODLLA"
    ],
    "blue_problems": [
      "RETLET"
    ]
  },
  "__v": 0
},{
  "_id": {
    "$oid": "6252339837ac5e0004f57ce7"
  },
  "data": [
    {
      "rt": 13241,
      "responses": "{\"Q0\":\" I consent to participate\"}",
      "trial_type": "survey-multi-choice",
      "trial_index": 0,
      "time_elapsed": 13248,
      "internal_node_id": "0.0-0.0",
      "responseType": "finish",
      "participantID": "gga4nyqtdbwyreoc0aq15uckzy3o4hwf",
      "black_problems": [
        "RODLLA"
      ],
      "blue_problems": [
        "ECELT"
      ]
    },
    {
      "trial_type": "call-function",
      "trial_index": 1,
      "time_elapsed": 13253,
      "internal_node_id": "0.0-1.0",
      "responseType": "finish",
      "participantID": "gga4nyqtdbwyreoc0aq15uckzy3o4hwf",
      "black_problems": [
        "RODLLA"
      ],
      "blue_problems": [
        "ECELT"
      ]
    },
    {
      "view_history": "[{\"page_index\":0,\"viewing_time\":7601},{\"page_index\":1,\"viewing_time\":17896},{\"page_index\":2,\"viewing_time\":6231}]",
      "rt": 31729,
      "trial_type": "instructions",
      "trial_index": 2,
      "time_elapsed": 44983,
      "internal_node_id": "0.0-2.0-0.0",
      "responseType": "finish",
      "participantID": "gga4nyqtdbwyreoc0aq15uckzy3o4hwf",
      "black_problems": [
        "RODLLA"
      ],
      "blue_problems": [
        "ECELT"
      ]
    },
    {
      "rt": 7188,
      "responses": "{\"Q0\":\"The answer to the blue colored anagram will be shown after 1 minute.\"}",
      "trial_type": "survey-multi-choice",
      "trial_index": 3,
      "time_elapsed": 52174,
      "internal_node_id": "0.0-2.0-1.0",
      "responseType": "finish",
      "participantID": "gga4nyqtdbwyreoc0aq15uckzy3o4hwf",
      "black_problems": [
        "RODLLA"
      ],
      "blue_problems": [
        "ECELT"
      ]
    },
    {
      "rt": 6477,
      "stimulus": "<center><p>Now the <b style=\"color:#069\">blue</b> anagram will be shown to you.</p> <p>If you are not able to solve the anagram in <b>1 minute</b>, the answer will be shown to you.</p> <p>Press 'v' to view the anagram. </p></center>",
      "key_press": 86,
      "trial_type": "html-keyboard-response",
      "trial_index": 4,
      "time_elapsed": 58655,
      "internal_node_id": "0.0-3.0-0.0",
      "responseType": "finish",
      "participantID": "gga4nyqtdbwyreoc0aq15uckzy3o4hwf",
      "black_problems": [
        "RODLLA"
      ],
      "blue_problems": [
        "ECELT"
      ]
    },
    {
      "rt": 7348,
      "responses": "{\"Q0\":\"ELECT\"}",
      "trial_type": "survey-text",
      "trial_index": 5,
      "time_elapsed": 66005,
      "internal_node_id": "0.0-3.0-1.0",
      "responseType": "finish",
      "participantID": "gga4nyqtdbwyreoc0aq15uckzy3o4hwf",
      "black_problems": [
        "RODLLA"
      ],
      "blue_problems": [
        "ECELT"
      ]
    },
    {
      "rt": 1678,
      "stimulus": "<center>The answer is: <h2 style=\"color:#069\"><p>ELECT</p></h2><br/><br/></center>",
      "button_pressed": "0",
      "trial_type": "html-button-response",
      "trial_index": 6,
      "time_elapsed": 67684,
      "internal_node_id": "0.0-3.0-2.0-0.0",
      "responseType": "finish",
      "participantID": "gga4nyqtdbwyreoc0aq15uckzy3o4hwf",
      "black_problems": [
        "RODLLA"
      ],
      "blue_problems": [
        "ECELT"
      ]
    },
    {
      "rt": 14324,
      "responses": "{\"Q0\":4}",
      "trial_type": "survey-likert",
      "trial_index": 7,
      "time_elapsed": 82010,
      "internal_node_id": "0.0-3.0-3.0-0.0",
      "responseType": "finish",
      "participantID": "gga4nyqtdbwyreoc0aq15uckzy3o4hwf",
      "black_problems": [
        "RODLLA"
      ],
      "blue_problems": [
        "ECELT"
      ]
    },
    {
      "rt": 2632,
      "stimulus": "<center><p>Now the <b>black</b> anagram will be shown to you.</p> <p>If you are not able to solve the anagram in <b>1 minute</b>, you will be taken to the next screen.</p> <p>Press 'v' to view the anagram. </p></center>",
      "key_press": 86,
      "trial_type": "html-keyboard-response",
      "trial_index": 8,
      "time_elapsed": 84657,
      "internal_node_id": "0.0-3.1-0.1",
      "responseType": "finish",
      "participantID": "gga4nyqtdbwyreoc0aq15uckzy3o4hwf",
      "black_problems": [
        "RODLLA"
      ],
      "blue_problems": [
        "ECELT"
      ]
    },
    {
      "rt": 10762,
      "responses": "{\"Q0\":\"DOLLAR\"}",
      "trial_type": "survey-text",
      "trial_index": 9,
      "time_elapsed": 95420,
      "internal_node_id": "0.0-3.1-1.1",
      "responseType": "finish",
      "participantID": "gga4nyqtdbwyreoc0aq15uckzy3o4hwf",
      "black_problems": [
        "RODLLA"
      ],
      "blue_problems": [
        "ECELT"
      ]
    },
    {
      "rt": 7738,
      "responses": "{\"Q0\":5}",
      "trial_type": "survey-likert",
      "trial_index": 10,
      "time_elapsed": 103161,
      "internal_node_id": "0.0-3.1-3.1-0.1",
      "responseType": "finish",
      "participantID": "gga4nyqtdbwyreoc0aq15uckzy3o4hwf",
      "black_problems": [
        "RODLLA"
      ],
      "blue_problems": [
        "ECELT"
      ]
    }
  ],
  "__v": 0
},{
  "_id": {
    "$oid": "625233a437ac5e0004f57ce8"
  },
  "data": {
    "responseType": "start",
    "participantID": "w16wanpvq2sdlmur18tj1kfnb0rothz0",
    "black_problems": [
      "HSOADW"
    ],
    "blue_problems": [
      "RODLLA"
    ]
  },
  "__v": 0
},{
  "_id": {
    "$oid": "625233c237ac5e0004f57ce9"
  },
  "data": {
    "responseType": "start",
    "participantID": "sywa0co86we3um222e23ezsg0mxzov6j",
    "black_problems": [
      "LYLE"
    ],
    "blue_problems": [
      "RETLET"
    ]
  },
  "__v": 0
},{
  "_id": {
    "$oid": "625233e037ac5e0004f57cea"
  },
  "data": {
    "responseType": "start",
    "participantID": "19d117t23980ptcavcgp2ryt5dr964cq",
    "black_problems": [
      "LYLE"
    ],
    "blue_problems": [
      "RETLET"
    ]
  },
  "__v": 0
},{
  "_id": {
    "$oid": "625233e237ac5e0004f57ceb"
  },
  "data": {
    "responseType": "start",
    "participantID": "va9zhkgjcqqdfulcazsd43fz2888ztkg",
    "black_problems": [
      "RODLLA"
    ],
    "blue_problems": [
      "HSOADW"
    ]
  },
  "__v": 0
},{
  "_id": {
    "$oid": "625233e437ac5e0004f57cec"
  },
  "data": {
    "responseType": "start",
    "participantID": "px7tpcl0od0mkbu4wqjqbo730v52q166",
    "black_problems": [
      "YUOEJRN"
    ],
    "blue_problems": [
      "LYLE"
    ]
  },
  "__v": 0
},{
  "_id": {
    "$oid": "625233ec37ac5e0004f57ced"
  },
  "data": [
    {
      "rt": 5699,
      "responses": "{\"Q0\":\" I consent to participate\"}",
      "trial_type": "survey-multi-choice",
      "trial_index": 0,
      "time_elapsed": 5705,
      "internal_node_id": "0.0-0.0",
      "responseType": "finish",
      "participantID": "q4k48fdzeofeua1f2wt9zouemf6w8y4g",
      "black_problems": [
        "YUOEJRN"
      ],
      "blue_problems": [
        "RODLLA"
      ]
    },
    {
      "trial_type": "call-function",
      "trial_index": 1,
      "time_elapsed": 5710,
      "internal_node_id": "0.0-1.0",
      "responseType": "finish",
      "participantID": "q4k48fdzeofeua1f2wt9zouemf6w8y4g",
      "black_problems": [
        "YUOEJRN"
      ],
      "blue_problems": [
        "RODLLA"
      ]
    },
    {
      "view_history": "[{\"page_index\":0,\"viewing_time\":7628},{\"page_index\":1,\"viewing_time\":11138},{\"page_index\":2,\"viewing_time\":6009}]",
      "rt": 24776,
      "trial_type": "instructions",
      "trial_index": 2,
      "time_elapsed": 30486,
      "internal_node_id": "0.0-2.0-0.0",
      "responseType": "finish",
      "participantID": "q4k48fdzeofeua1f2wt9zouemf6w8y4g",
      "black_problems": [
        "YUOEJRN"
      ],
      "blue_problems": [
        "RODLLA"
      ]
    },
    {
      "rt": 14027,
      "responses": "{\"Q0\":\"The answer to the blue colored anagram will be shown after 1 minute.\"}",
      "trial_type": "survey-multi-choice",
      "trial_index": 3,
      "time_elapsed": 44515,
      "internal_node_id": "0.0-2.0-1.0",
      "responseType": "finish",
      "participantID": "q4k48fdzeofeua1f2wt9zouemf6w8y4g",
      "black_problems": [
        "YUOEJRN"
      ],
      "blue_problems": [
        "RODLLA"
      ]
    },
    {
      "rt": 4365,
      "stimulus": "<center><p>Now the <b style=\"color:#069\">blue</b> anagram will be shown to you.</p> <p>If you are not able to solve the anagram in <b>1 minute</b>, the answer will be shown to you.</p> <p>Press 'v' to view the anagram. </p></center>",
      "key_press": 86,
      "trial_type": "html-keyboard-response",
      "trial_index": 4,
      "time_elapsed": 48882,
      "internal_node_id": "0.0-3.0-0.0",
      "responseType": "finish",
      "participantID": "q4k48fdzeofeua1f2wt9zouemf6w8y4g",
      "black_problems": [
        "YUOEJRN"
      ],
      "blue_problems": [
        "RODLLA"
      ]
    },
    {
      "rt": 15002,
      "responses": "{\"Q0\":\"\"}",
      "trial_type": "survey-text",
      "trial_index": 5,
      "time_elapsed": 63886,
      "internal_node_id": "0.0-3.0-1.0",
      "responseType": "finish",
      "participantID": "q4k48fdzeofeua1f2wt9zouemf6w8y4g",
      "black_problems": [
        "YUOEJRN"
      ],
      "blue_problems": [
        "RODLLA"
      ]
    },
    {
      "rt": 2939,
      "stimulus": "<center>The answer is: <h2 style=\"color:#069\"><p>DOLLAR</p></h2><br/><br/></center>",
      "button_pressed": "0",
      "trial_type": "html-button-response",
      "trial_index": 6,
      "time_elapsed": 66827,
      "internal_node_id": "0.0-3.0-2.0-0.0",
      "responseType": "finish",
      "participantID": "q4k48fdzeofeua1f2wt9zouemf6w8y4g",
      "black_problems": [
        "YUOEJRN"
      ],
      "blue_problems": [
        "RODLLA"
      ]
    },
    {
      "rt": 9657,
      "responses": "{\"Q0\":6}",
      "trial_type": "survey-likert",
      "trial_index": 7,
      "time_elapsed": 76486,
      "internal_node_id": "0.0-3.0-3.0-0.0",
      "responseType": "finish",
      "participantID": "q4k48fdzeofeua1f2wt9zouemf6w8y4g",
      "black_problems": [
        "YUOEJRN"
      ],
      "blue_problems": [
        "RODLLA"
      ]
    },
    {
      "rt": 3376,
      "stimulus": "<center><p>Now the <b>black</b> anagram will be shown to you.</p> <p>If you are not able to solve the anagram in <b>1 minute</b>, you will be taken to the next screen.</p> <p>Press 'v' to view the anagram. </p></center>",
      "key_press": 86,
      "trial_type": "html-keyboard-response",
      "trial_index": 8,
      "time_elapsed": 79874,
      "internal_node_id": "0.0-3.1-0.1",
      "responseType": "finish",
      "participantID": "q4k48fdzeofeua1f2wt9zouemf6w8y4g",
      "black_problems": [
        "YUOEJRN"
      ],
      "blue_problems": [
        "RODLLA"
      ]
    },
    {
      "rt": 10919,
      "responses": "{\"Q0\":\"journey\"}",
      "trial_type": "survey-text",
      "trial_index": 9,
      "time_elapsed": 90793,
      "internal_node_id": "0.0-3.1-1.1",
      "responseType": "finish",
      "participantID": "q4k48fdzeofeua1f2wt9zouemf6w8y4g",
      "black_problems": [
        "YUOEJRN"
      ],
      "blue_problems": [
        "RODLLA"
      ]
    },
    {
      "rt": 4288,
      "responses": "{\"Q0\":6}",
      "trial_type": "survey-likert",
      "trial_index": 10,
      "time_elapsed": 95084,
      "internal_node_id": "0.0-3.1-3.1-0.1",
      "responseType": "finish",
      "participantID": "q4k48fdzeofeua1f2wt9zouemf6w8y4g",
      "black_problems": [
        "YUOEJRN"
      ],
      "blue_problems": [
        "RODLLA"
      ]
    }
  ],
  "__v": 0
},{
  "_id": {
    "$oid": "6252340137ac5e0004f57cee"
  },
  "data": [
    {
      "rt": 18113,
      "responses": "{\"Q0\":\" I consent to participate\"}",
      "trial_type": "survey-multi-choice",
      "trial_index": 0,
      "time_elapsed": 18116,
      "internal_node_id": "0.0-0.0",
      "responseType": "finish",
      "participantID": "skerqwogsw1m5v2rlopt6lkqosv4274q",
      "black_problems": [
        "RODLLA"
      ],
      "blue_problems": [
        "RETLET"
      ]
    },
    {
      "trial_type": "call-function",
      "trial_index": 1,
      "time_elapsed": 18120,
      "internal_node_id": "0.0-1.0",
      "responseType": "finish",
      "participantID": "skerqwogsw1m5v2rlopt6lkqosv4274q",
      "black_problems": [
        "RODLLA"
      ],
      "blue_problems": [
        "RETLET"
      ]
    },
    {
      "view_history": "[{\"page_index\":0,\"viewing_time\":14023},{\"page_index\":1,\"viewing_time\":15746},{\"page_index\":2,\"viewing_time\":6258}]",
      "rt": 36027,
      "trial_type": "instructions",
      "trial_index": 2,
      "time_elapsed": 54147,
      "internal_node_id": "0.0-2.0-0.0",
      "responseType": "finish",
      "participantID": "skerqwogsw1m5v2rlopt6lkqosv4274q",
      "black_problems": [
        "RODLLA"
      ],
      "blue_problems": [
        "RETLET"
      ]
    },
    {
      "rt": 11856,
      "responses": "{\"Q0\":\"The answer to the blue colored anagram will be shown after 1 minute.\"}",
      "trial_type": "survey-multi-choice",
      "trial_index": 3,
      "time_elapsed": 66007,
      "internal_node_id": "0.0-2.0-1.0",
      "responseType": "finish",
      "participantID": "skerqwogsw1m5v2rlopt6lkqosv4274q",
      "black_problems": [
        "RODLLA"
      ],
      "blue_problems": [
        "RETLET"
      ]
    },
    {
      "rt": 6000,
      "stimulus": "<center><p>Now the <b style=\"color:#069\">blue</b> anagram will be shown to you.</p> <p>If you are not able to solve the anagram in <b>1 minute</b>, the answer will be shown to you.</p> <p>Press 'v' to view the anagram. </p></center>",
      "key_press": 86,
      "trial_type": "html-keyboard-response",
      "trial_index": 4,
      "time_elapsed": 72010,
      "internal_node_id": "0.0-3.0-0.0",
      "responseType": "finish",
      "participantID": "skerqwogsw1m5v2rlopt6lkqosv4274q",
      "black_problems": [
        "RODLLA"
      ],
      "blue_problems": [
        "RETLET"
      ]
    },
    {
      "rt": 11318,
      "responses": "{\"Q0\":\"LETTER\"}",
      "trial_type": "survey-text",
      "trial_index": 5,
      "time_elapsed": 83329,
      "internal_node_id": "0.0-3.0-1.0",
      "responseType": "finish",
      "participantID": "skerqwogsw1m5v2rlopt6lkqosv4274q",
      "black_problems": [
        "RODLLA"
      ],
      "blue_problems": [
        "RETLET"
      ]
    },
    {
      "rt": 1928,
      "stimulus": "<center>The answer is: <h2 style=\"color:#069\"><p>LETTER</p></h2><br/><br/></center>",
      "button_pressed": "0",
      "trial_type": "html-button-response",
      "trial_index": 6,
      "time_elapsed": 85259,
      "internal_node_id": "0.0-3.0-2.0-0.0",
      "responseType": "finish",
      "participantID": "skerqwogsw1m5v2rlopt6lkqosv4274q",
      "black_problems": [
        "RODLLA"
      ],
      "blue_problems": [
        "RETLET"
      ]
    },
    {
      "rt": 10287,
      "responses": "{\"Q0\":6}",
      "trial_type": "survey-likert",
      "trial_index": 7,
      "time_elapsed": 95547,
      "internal_node_id": "0.0-3.0-3.0-0.0",
      "responseType": "finish",
      "participantID": "skerqwogsw1m5v2rlopt6lkqosv4274q",
      "black_problems": [
        "RODLLA"
      ],
      "blue_problems": [
        "RETLET"
      ]
    },
    {
      "rt": 5896,
      "stimulus": "<center><p>Now the <b>black</b> anagram will be shown to you.</p> <p>If you are not able to solve the anagram in <b>1 minute</b>, you will be taken to the next screen.</p> <p>Press 'v' to view the anagram. </p></center>",
      "key_press": 86,
      "trial_type": "html-keyboard-response",
      "trial_index": 8,
      "time_elapsed": 101454,
      "internal_node_id": "0.0-3.1-0.1",
      "responseType": "finish",
      "participantID": "skerqwogsw1m5v2rlopt6lkqosv4274q",
      "black_problems": [
        "RODLLA"
      ],
      "blue_problems": [
        "RETLET"
      ]
    },
    {
      "rt": 13747,
      "responses": "{\"Q0\":\"DOLLAR\"}",
      "trial_type": "survey-text",
      "trial_index": 9,
      "time_elapsed": 115202,
      "internal_node_id": "0.0-3.1-1.1",
      "responseType": "finish",
      "participantID": "skerqwogsw1m5v2rlopt6lkqosv4274q",
      "black_problems": [
        "RODLLA"
      ],
      "blue_problems": [
        "RETLET"
      ]
    },
    {
      "rt": 10685,
      "responses": "{\"Q0\":6}",
      "trial_type": "survey-likert",
      "trial_index": 10,
      "time_elapsed": 125888,
      "internal_node_id": "0.0-3.1-3.1-0.1",
      "responseType": "finish",
      "participantID": "skerqwogsw1m5v2rlopt6lkqosv4274q",
      "black_problems": [
        "RODLLA"
      ],
      "blue_problems": [
        "RETLET"
      ]
    }
  ],
  "__v": 0
},{
  "_id": {
    "$oid": "6252340237ac5e0004f57cef"
  },
  "data": {
    "responseType": "start",
    "participantID": "pprdqd1g2qxbq3g742141c4m1qcr2can",
    "black_problems": [
      "RODLLA"
    ],
    "blue_problems": [
      "YUOEJRN"
    ]
  },
  "__v": 0
},{
  "_id": {
    "$oid": "6252341d37ac5e0004f57cf0"
  },
  "data": {
    "responseType": "start",
    "participantID": "9lllykbdkfcue3t1lh3wkqfyzemzrzjd",
    "black_problems": [
      "LYLE"
    ],
    "blue_problems": [
      "YUOEJRN"
    ]
  },
  "__v": 0
},{
  "_id": {
    "$oid": "6252342437ac5e0004f57cf1"
  },
  "data": [
    {
      "rt": 20614,
      "responses": "{\"Q0\":\" I consent to participate\"}",
      "trial_type": "survey-multi-choice",
      "trial_index": 0,
      "time_elapsed": 20618,
      "internal_node_id": "0.0-0.0",
      "responseType": "finish",
      "participantID": "w16wanpvq2sdlmur18tj1kfnb0rothz0",
      "black_problems": [
        "HSOADW"
      ],
      "blue_problems": [
        "RODLLA"
      ]
    },
    {
      "trial_type": "call-function",
      "trial_index": 1,
      "time_elapsed": 20625,
      "internal_node_id": "0.0-1.0",
      "responseType": "finish",
      "participantID": "w16wanpvq2sdlmur18tj1kfnb0rothz0",
      "black_problems": [
        "HSOADW"
      ],
      "blue_problems": [
        "RODLLA"
      ]
    },
    {
      "view_history": "[{\"page_index\":0,\"viewing_time\":15305},{\"page_index\":1,\"viewing_time\":18783},{\"page_index\":2,\"viewing_time\":8687}]",
      "rt": 42775,
      "trial_type": "instructions",
      "trial_index": 2,
      "time_elapsed": 63400,
      "internal_node_id": "0.0-2.0-0.0",
      "responseType": "finish",
      "participantID": "w16wanpvq2sdlmur18tj1kfnb0rothz0",
      "black_problems": [
        "HSOADW"
      ],
      "blue_problems": [
        "RODLLA"
      ]
    },
    {
      "rt": 21887,
      "responses": "{\"Q0\":\"The answer to the blue colored anagram will be shown after 1 minute.\"}",
      "trial_type": "survey-multi-choice",
      "trial_index": 3,
      "time_elapsed": 85289,
      "internal_node_id": "0.0-2.0-1.0",
      "responseType": "finish",
      "participantID": "w16wanpvq2sdlmur18tj1kfnb0rothz0",
      "black_problems": [
        "HSOADW"
      ],
      "blue_problems": [
        "RODLLA"
      ]
    },
    {
      "rt": 6991,
      "stimulus": "<center><p>Now the <b style=\"color:#069\">blue</b> anagram will be shown to you.</p> <p>If you are not able to solve the anagram in <b>1 minute</b>, the answer will be shown to you.</p> <p>Press 'v' to view the anagram. </p></center>",
      "key_press": 86,
      "trial_type": "html-keyboard-response",
      "trial_index": 4,
      "time_elapsed": 92282,
      "internal_node_id": "0.0-3.0-0.0",
      "responseType": "finish",
      "participantID": "w16wanpvq2sdlmur18tj1kfnb0rothz0",
      "black_problems": [
        "HSOADW"
      ],
      "blue_problems": [
        "RODLLA"
      ]
    },
    {
      "rt": 10414,
      "responses": "{\"Q0\":\"Dollar\"}",
      "trial_type": "survey-text",
      "trial_index": 5,
      "time_elapsed": 102697,
      "internal_node_id": "0.0-3.0-1.0",
      "responseType": "finish",
      "participantID": "w16wanpvq2sdlmur18tj1kfnb0rothz0",
      "black_problems": [
        "HSOADW"
      ],
      "blue_problems": [
        "RODLLA"
      ]
    },
    {
      "rt": 2127,
      "stimulus": "<center>The answer is: <h2 style=\"color:#069\"><p>DOLLAR</p></h2><br/><br/></center>",
      "button_pressed": "0",
      "trial_type": "html-button-response",
      "trial_index": 6,
      "time_elapsed": 104825,
      "internal_node_id": "0.0-3.0-2.0-0.0",
      "responseType": "finish",
      "participantID": "w16wanpvq2sdlmur18tj1kfnb0rothz0",
      "black_problems": [
        "HSOADW"
      ],
      "blue_problems": [
        "RODLLA"
      ]
    },
    {
      "rt": 16836,
      "responses": "{\"Q0\":4}",
      "trial_type": "survey-likert",
      "trial_index": 7,
      "time_elapsed": 121662,
      "internal_node_id": "0.0-3.0-3.0-0.0",
      "responseType": "finish",
      "participantID": "w16wanpvq2sdlmur18tj1kfnb0rothz0",
      "black_problems": [
        "HSOADW"
      ],
      "blue_problems": [
        "RODLLA"
      ]
    },
    {
      "rt": 8975,
      "stimulus": "<center><p>Now the <b>black</b> anagram will be shown to you.</p> <p>If you are not able to solve the anagram in <b>1 minute</b>, you will be taken to the next screen.</p> <p>Press 'v' to view the anagram. </p></center>",
      "key_press": 86,
      "trial_type": "html-keyboard-response",
      "trial_index": 8,
      "time_elapsed": 130642,
      "internal_node_id": "0.0-3.1-0.1",
      "responseType": "finish",
      "participantID": "w16wanpvq2sdlmur18tj1kfnb0rothz0",
      "black_problems": [
        "HSOADW"
      ],
      "blue_problems": [
        "RODLLA"
      ]
    },
    {
      "rt": 12220,
      "responses": "{\"Q0\":\"shadow\"}",
      "trial_type": "survey-text",
      "trial_index": 9,
      "time_elapsed": 142863,
      "internal_node_id": "0.0-3.1-1.1",
      "responseType": "finish",
      "participantID": "w16wanpvq2sdlmur18tj1kfnb0rothz0",
      "black_problems": [
        "HSOADW"
      ],
      "blue_problems": [
        "RODLLA"
      ]
    },
    {
      "rt": 6091,
      "responses": "{\"Q0\":2}",
      "trial_type": "survey-likert",
      "trial_index": 10,
      "time_elapsed": 148956,
      "internal_node_id": "0.0-3.1-3.1-0.1",
      "responseType": "finish",
      "participantID": "w16wanpvq2sdlmur18tj1kfnb0rothz0",
      "black_problems": [
        "HSOADW"
      ],
      "blue_problems": [
        "RODLLA"
      ]
    }
  ],
  "__v": 0
},{
  "_id": {
    "$oid": "6252342e37ac5e0004f57cf2"
  },
  "data": {
    "responseType": "start",
    "participantID": "8cbfe5q7h0jmsw4n388h7z0epefawge4",
    "black_problems": [
      "ECELT"
    ],
    "blue_problems": [
      "YUOEJRN"
    ]
  },
  "__v": 0
},{
  "_id": {
    "$oid": "6252343b37ac5e0004f57cf3"
  },
  "data": {
    "responseType": "start",
    "participantID": "bkx1xwboe0a5tq1e5kzvdl4lcq9gja5x",
    "black_problems": [
      "HSOADW"
    ],
    "blue_problems": [
      "RODLLA"
    ]
  },
  "__v": 0
},{
  "_id": {
    "$oid": "6252344a37ac5e0004f57cf4"
  },
  "data": [
    {
      "rt": 5191,
      "responses": "{\"Q0\":\" I consent to participate\"}",
      "trial_type": "survey-multi-choice",
      "trial_index": 0,
      "time_elapsed": 5220,
      "internal_node_id": "0.0-0.0",
      "responseType": "finish",
      "participantID": "pprdqd1g2qxbq3g742141c4m1qcr2can",
      "black_problems": [
        "RODLLA"
      ],
      "blue_problems": [
        "YUOEJRN"
      ]
    },
    {
      "trial_type": "call-function",
      "trial_index": 1,
      "time_elapsed": 5227,
      "internal_node_id": "0.0-1.0",
      "responseType": "finish",
      "participantID": "pprdqd1g2qxbq3g742141c4m1qcr2can",
      "black_problems": [
        "RODLLA"
      ],
      "blue_problems": [
        "YUOEJRN"
      ]
    },
    {
      "view_history": "[{\"page_index\":0,\"viewing_time\":8673},{\"page_index\":1,\"viewing_time\":14583},{\"page_index\":2,\"viewing_time\":5641}]",
      "rt": 28898,
      "trial_type": "instructions",
      "trial_index": 2,
      "time_elapsed": 34125,
      "internal_node_id": "0.0-2.0-0.0",
      "responseType": "finish",
      "participantID": "pprdqd1g2qxbq3g742141c4m1qcr2can",
      "black_problems": [
        "RODLLA"
      ],
      "blue_problems": [
        "YUOEJRN"
      ]
    },
    {
      "rt": 9933,
      "responses": "{\"Q0\":\"The answer to the blue colored anagram will be shown after 1 minute.\"}",
      "trial_type": "survey-multi-choice",
      "trial_index": 3,
      "time_elapsed": 44060,
      "internal_node_id": "0.0-2.0-1.0",
      "responseType": "finish",
      "participantID": "pprdqd1g2qxbq3g742141c4m1qcr2can",
      "black_problems": [
        "RODLLA"
      ],
      "blue_problems": [
        "YUOEJRN"
      ]
    },
    {
      "rt": 3802,
      "stimulus": "<center><p>Now the <b style=\"color:#069\">blue</b> anagram will be shown to you.</p> <p>If you are not able to solve the anagram in <b>1 minute</b>, the answer will be shown to you.</p> <p>Press 'v' to view the anagram. </p></center>",
      "key_press": 86,
      "trial_type": "html-keyboard-response",
      "trial_index": 4,
      "time_elapsed": 47869,
      "internal_node_id": "0.0-3.0-0.0",
      "responseType": "finish",
      "participantID": "pprdqd1g2qxbq3g742141c4m1qcr2can",
      "black_problems": [
        "RODLLA"
      ],
      "blue_problems": [
        "YUOEJRN"
      ]
    },
    {
      "rt": 9341,
      "responses": "{\"Q0\":\"journey\"}",
      "trial_type": "survey-text",
      "trial_index": 5,
      "time_elapsed": 57212,
      "internal_node_id": "0.0-3.0-1.0",
      "responseType": "finish",
      "participantID": "pprdqd1g2qxbq3g742141c4m1qcr2can",
      "black_problems": [
        "RODLLA"
      ],
      "blue_problems": [
        "YUOEJRN"
      ]
    },
    {
      "rt": 1292,
      "stimulus": "<center>The answer is: <h2 style=\"color:#069\"><p>JOURNEY</p></h2><br/><br/></center>",
      "button_pressed": "0",
      "trial_type": "html-button-response",
      "trial_index": 6,
      "time_elapsed": 58505,
      "internal_node_id": "0.0-3.0-2.0-0.0",
      "responseType": "finish",
      "participantID": "pprdqd1g2qxbq3g742141c4m1qcr2can",
      "black_problems": [
        "RODLLA"
      ],
      "blue_problems": [
        "YUOEJRN"
      ]
    },
    {
      "rt": 9078,
      "responses": "{\"Q0\":6}",
      "trial_type": "survey-likert",
      "trial_index": 7,
      "time_elapsed": 67585,
      "internal_node_id": "0.0-3.0-3.0-0.0",
      "responseType": "finish",
      "participantID": "pprdqd1g2qxbq3g742141c4m1qcr2can",
      "black_problems": [
        "RODLLA"
      ],
      "blue_problems": [
        "YUOEJRN"
      ]
    },
    {
      "rt": 2363,
      "stimulus": "<center><p>Now the <b>black</b> anagram will be shown to you.</p> <p>If you are not able to solve the anagram in <b>1 minute</b>, you will be taken to the next screen.</p> <p>Press 'v' to view the anagram. </p></center>",
      "key_press": 86,
      "trial_type": "html-keyboard-response",
      "trial_index": 8,
      "time_elapsed": 69960,
      "internal_node_id": "0.0-3.1-0.1",
      "responseType": "finish",
      "participantID": "pprdqd1g2qxbq3g742141c4m1qcr2can",
      "black_problems": [
        "RODLLA"
      ],
      "blue_problems": [
        "YUOEJRN"
      ]
    },
    {
      "rt": 5149,
      "responses": "{\"Q0\":\"dollar\"}",
      "trial_type": "survey-text",
      "trial_index": 9,
      "time_elapsed": 75112,
      "internal_node_id": "0.0-3.1-1.1",
      "responseType": "finish",
      "participantID": "pprdqd1g2qxbq3g742141c4m1qcr2can",
      "black_problems": [
        "RODLLA"
      ],
      "blue_problems": [
        "YUOEJRN"
      ]
    },
    {
      "rt": 2308,
      "responses": "{\"Q0\":6}",
      "trial_type": "survey-likert",
      "trial_index": 10,
      "time_elapsed": 77420,
      "internal_node_id": "0.0-3.1-3.1-0.1",
      "responseType": "finish",
      "participantID": "pprdqd1g2qxbq3g742141c4m1qcr2can",
      "black_problems": [
        "RODLLA"
      ],
      "blue_problems": [
        "YUOEJRN"
      ]
    }
  ],
  "__v": 0
},{
  "_id": {
    "$oid": "6252344c37ac5e0004f57cf5"
  },
  "data": [
    {
      "rt": 9082,
      "responses": "{\"Q0\":\" I consent to participate\"}",
      "trial_type": "survey-multi-choice",
      "trial_index": 0,
      "time_elapsed": 9084,
      "internal_node_id": "0.0-0.0",
      "responseType": "finish",
      "participantID": "sywa0co86we3um222e23ezsg0mxzov6j",
      "black_problems": [
        "LYLE"
      ],
      "blue_problems": [
        "RETLET"
      ]
    },
    {
      "trial_type": "call-function",
      "trial_index": 1,
      "time_elapsed": 9087,
      "internal_node_id": "0.0-1.0",
      "responseType": "finish",
      "participantID": "sywa0co86we3um222e23ezsg0mxzov6j",
      "black_problems": [
        "LYLE"
      ],
      "blue_problems": [
        "RETLET"
      ]
    },
    {
      "view_history": "[{\"page_index\":0,\"viewing_time\":14754},{\"page_index\":1,\"viewing_time\":14460},{\"page_index\":2,\"viewing_time\":7026}]",
      "rt": 36241,
      "trial_type": "instructions",
      "trial_index": 2,
      "time_elapsed": 45329,
      "internal_node_id": "0.0-2.0-0.0",
      "responseType": "finish",
      "participantID": "sywa0co86we3um222e23ezsg0mxzov6j",
      "black_problems": [
        "LYLE"
      ],
      "blue_problems": [
        "RETLET"
      ]
    },
    {
      "rt": 20599,
      "responses": "{\"Q0\":\"The answer to the blue colored anagram will be shown after 1 minute.\"}",
      "trial_type": "survey-multi-choice",
      "trial_index": 3,
      "time_elapsed": 65930,
      "internal_node_id": "0.0-2.0-1.0",
      "responseType": "finish",
      "participantID": "sywa0co86we3um222e23ezsg0mxzov6j",
      "black_problems": [
        "LYLE"
      ],
      "blue_problems": [
        "RETLET"
      ]
    },
    {
      "rt": 5740,
      "stimulus": "<center><p>Now the <b style=\"color:#069\">blue</b> anagram will be shown to you.</p> <p>If you are not able to solve the anagram in <b>1 minute</b>, the answer will be shown to you.</p> <p>Press 'v' to view the anagram. </p></center>",
      "key_press": 86,
      "trial_type": "html-keyboard-response",
      "trial_index": 4,
      "time_elapsed": 71672,
      "internal_node_id": "0.0-3.0-0.0",
      "responseType": "finish",
      "participantID": "sywa0co86we3um222e23ezsg0mxzov6j",
      "black_problems": [
        "LYLE"
      ],
      "blue_problems": [
        "RETLET"
      ]
    },
    {
      "rt": 15001,
      "responses": "{\"Q0\":\"\"}",
      "trial_type": "survey-text",
      "trial_index": 5,
      "time_elapsed": 86674,
      "internal_node_id": "0.0-3.0-1.0",
      "responseType": "finish",
      "participantID": "sywa0co86we3um222e23ezsg0mxzov6j",
      "black_problems": [
        "LYLE"
      ],
      "blue_problems": [
        "RETLET"
      ]
    },
    {
      "rt": 2810,
      "stimulus": "<center>The answer is: <h2 style=\"color:#069\"><p>LETTER</p></h2><br/><br/></center>",
      "button_pressed": "0",
      "trial_type": "html-button-response",
      "trial_index": 6,
      "time_elapsed": 89484,
      "internal_node_id": "0.0-3.0-2.0-0.0",
      "responseType": "finish",
      "participantID": "sywa0co86we3um222e23ezsg0mxzov6j",
      "black_problems": [
        "LYLE"
      ],
      "blue_problems": [
        "RETLET"
      ]
    },
    {
      "rt": 15696,
      "responses": "{\"Q0\":5}",
      "trial_type": "survey-likert",
      "trial_index": 7,
      "time_elapsed": 105181,
      "internal_node_id": "0.0-3.0-3.0-0.0",
      "responseType": "finish",
      "participantID": "sywa0co86we3um222e23ezsg0mxzov6j",
      "black_problems": [
        "LYLE"
      ],
      "blue_problems": [
        "RETLET"
      ]
    },
    {
      "rt": 4811,
      "stimulus": "<center><p>Now the <b>black</b> anagram will be shown to you.</p> <p>If you are not able to solve the anagram in <b>1 minute</b>, you will be taken to the next screen.</p> <p>Press 'v' to view the anagram. </p></center>",
      "key_press": 86,
      "trial_type": "html-keyboard-response",
      "trial_index": 8,
      "time_elapsed": 109998,
      "internal_node_id": "0.0-3.1-0.1",
      "responseType": "finish",
      "participantID": "sywa0co86we3um222e23ezsg0mxzov6j",
      "black_problems": [
        "LYLE"
      ],
      "blue_problems": [
        "RETLET"
      ]
    },
    {
      "rt": 12017,
      "responses": "{\"Q0\":\"YELL\"}",
      "trial_type": "survey-text",
      "trial_index": 9,
      "time_elapsed": 122015,
      "internal_node_id": "0.0-3.1-1.1",
      "responseType": "finish",
      "participantID": "sywa0co86we3um222e23ezsg0mxzov6j",
      "black_problems": [
        "LYLE"
      ],
      "blue_problems": [
        "RETLET"
      ]
    },
    {
      "rt": 24854,
      "responses": "{\"Q0\":4}",
      "trial_type": "survey-likert",
      "trial_index": 10,
      "time_elapsed": 146871,
      "internal_node_id": "0.0-3.1-3.1-0.1",
      "responseType": "finish",
      "participantID": "sywa0co86we3um222e23ezsg0mxzov6j",
      "black_problems": [
        "LYLE"
      ],
      "blue_problems": [
        "RETLET"
      ]
    }
  ],
  "__v": 0
},{
  "_id": {
    "$oid": "6252344e37ac5e0004f57cf6"
  },
  "data": {
    "responseType": "start",
    "participantID": "35vpyyfgb5rfl3frug62781hzzzfcmxm",
    "black_problems": [
      "LYLE"
    ],
    "blue_problems": [
      "RETLET"
    ]
  },
  "__v": 0
},{
  "_id": {
    "$oid": "6252344e37ac5e0004f57cf7"
  },
  "data": [
    {
      "rt": 14285,
      "responses": "{\"Q0\":\" I consent to participate\"}",
      "trial_type": "survey-multi-choice",
      "trial_index": 0,
      "time_elapsed": 14302,
      "internal_node_id": "0.0-0.0",
      "responseType": "finish",
      "participantID": "px7tpcl0od0mkbu4wqjqbo730v52q166",
      "black_problems": [
        "YUOEJRN"
      ],
      "blue_problems": [
        "LYLE"
      ]
    },
    {
      "trial_type": "call-function",
      "trial_index": 1,
      "time_elapsed": 14311,
      "internal_node_id": "0.0-1.0",
      "responseType": "finish",
      "participantID": "px7tpcl0od0mkbu4wqjqbo730v52q166",
      "black_problems": [
        "YUOEJRN"
      ],
      "blue_problems": [
        "LYLE"
      ]
    },
    {
      "view_history": "[{\"page_index\":0,\"viewing_time\":12233},{\"page_index\":1,\"viewing_time\":20343},{\"page_index\":2,\"viewing_time\":8060}]",
      "rt": 40637,
      "trial_type": "instructions",
      "trial_index": 2,
      "time_elapsed": 54948,
      "internal_node_id": "0.0-2.0-0.0",
      "responseType": "finish",
      "participantID": "px7tpcl0od0mkbu4wqjqbo730v52q166",
      "black_problems": [
        "YUOEJRN"
      ],
      "blue_problems": [
        "LYLE"
      ]
    },
    {
      "rt": 16386,
      "responses": "{\"Q0\":\"The answer to the blue colored anagram will be shown after 1 minute.\"}",
      "trial_type": "survey-multi-choice",
      "trial_index": 3,
      "time_elapsed": 71340,
      "internal_node_id": "0.0-2.0-1.0",
      "responseType": "finish",
      "participantID": "px7tpcl0od0mkbu4wqjqbo730v52q166",
      "black_problems": [
        "YUOEJRN"
      ],
      "blue_problems": [
        "LYLE"
      ]
    },
    {
      "rt": 5757,
      "stimulus": "<center><p>Now the <b style=\"color:#069\">blue</b> anagram will be shown to you.</p> <p>If you are not able to solve the anagram in <b>1 minute</b>, the answer will be shown to you.</p> <p>Press 'v' to view the anagram. </p></center>",
      "key_press": 86,
      "trial_type": "html-keyboard-response",
      "trial_index": 4,
      "time_elapsed": 77117,
      "internal_node_id": "0.0-3.0-0.0",
      "responseType": "finish",
      "participantID": "px7tpcl0od0mkbu4wqjqbo730v52q166",
      "black_problems": [
        "YUOEJRN"
      ],
      "blue_problems": [
        "LYLE"
      ]
    },
    {
      "rt": 7341,
      "responses": "{\"Q0\":\"yell\"}",
      "trial_type": "survey-text",
      "trial_index": 5,
      "time_elapsed": 84461,
      "internal_node_id": "0.0-3.0-1.0",
      "responseType": "finish",
      "participantID": "px7tpcl0od0mkbu4wqjqbo730v52q166",
      "black_problems": [
        "YUOEJRN"
      ],
      "blue_problems": [
        "LYLE"
      ]
    },
    {
      "rt": 1999,
      "stimulus": "<center>The answer is: <h2 style=\"color:#069\"><p>YELL</p></h2><br/><br/></center>",
      "button_pressed": "0",
      "trial_type": "html-button-response",
      "trial_index": 6,
      "time_elapsed": 86466,
      "internal_node_id": "0.0-3.0-2.0-0.0",
      "responseType": "finish",
      "participantID": "px7tpcl0od0mkbu4wqjqbo730v52q166",
      "black_problems": [
        "YUOEJRN"
      ],
      "blue_problems": [
        "LYLE"
      ]
    },
    {
      "rt": 16791,
      "responses": "{\"Q0\":4}",
      "trial_type": "survey-likert",
      "trial_index": 7,
      "time_elapsed": 103262,
      "internal_node_id": "0.0-3.0-3.0-0.0",
      "responseType": "finish",
      "participantID": "px7tpcl0od0mkbu4wqjqbo730v52q166",
      "black_problems": [
        "YUOEJRN"
      ],
      "blue_problems": [
        "LYLE"
      ]
    },
    {
      "rt": 3084,
      "stimulus": "<center><p>Now the <b>black</b> anagram will be shown to you.</p> <p>If you are not able to solve the anagram in <b>1 minute</b>, you will be taken to the next screen.</p> <p>Press 'v' to view the anagram. </p></center>",
      "key_press": 86,
      "trial_type": "html-keyboard-response",
      "trial_index": 8,
      "time_elapsed": 106352,
      "internal_node_id": "0.0-3.1-0.1",
      "responseType": "finish",
      "participantID": "px7tpcl0od0mkbu4wqjqbo730v52q166",
      "black_problems": [
        "YUOEJRN"
      ],
      "blue_problems": [
        "LYLE"
      ]
    },
    {
      "rt": 8674,
      "responses": "{\"Q0\":\"journey\"}",
      "trial_type": "survey-text",
      "trial_index": 9,
      "time_elapsed": 115029,
      "internal_node_id": "0.0-3.1-1.1",
      "responseType": "finish",
      "participantID": "px7tpcl0od0mkbu4wqjqbo730v52q166",
      "black_problems": [
        "YUOEJRN"
      ],
      "blue_problems": [
        "LYLE"
      ]
    },
    {
      "rt": 4883,
      "responses": "{\"Q0\":5}",
      "trial_type": "survey-likert",
      "trial_index": 10,
      "time_elapsed": 119916,
      "internal_node_id": "0.0-3.1-3.1-0.1",
      "responseType": "finish",
      "participantID": "px7tpcl0od0mkbu4wqjqbo730v52q166",
      "black_problems": [
        "YUOEJRN"
      ],
      "blue_problems": [
        "LYLE"
      ]
    }
  ],
  "__v": 0
},{
  "_id": {
    "$oid": "6252345837ac5e0004f57cf8"
  },
  "data": [
    {
      "rt": 34659,
      "responses": "{\"Q0\":\" I consent to participate\"}",
      "trial_type": "survey-multi-choice",
      "trial_index": 0,
      "time_elapsed": 34663,
      "internal_node_id": "0.0-0.0",
      "responseType": "finish",
      "participantID": "19d117t23980ptcavcgp2ryt5dr964cq",
      "black_problems": [
        "LYLE"
      ],
      "blue_problems": [
        "RETLET"
      ]
    },
    {
      "trial_type": "call-function",
      "trial_index": 1,
      "time_elapsed": 34665,
      "internal_node_id": "0.0-1.0",
      "responseType": "finish",
      "participantID": "19d117t23980ptcavcgp2ryt5dr964cq",
      "black_problems": [
        "LYLE"
      ],
      "blue_problems": [
        "RETLET"
      ]
    },
    {
      "view_history": "[{\"page_index\":0,\"viewing_time\":20613},{\"page_index\":1,\"viewing_time\":17581},{\"page_index\":2,\"viewing_time\":8403}]",
      "rt": 46597,
      "trial_type": "instructions",
      "trial_index": 2,
      "time_elapsed": 81262,
      "internal_node_id": "0.0-2.0-0.0",
      "responseType": "finish",
      "participantID": "19d117t23980ptcavcgp2ryt5dr964cq",
      "black_problems": [
        "LYLE"
      ],
      "blue_problems": [
        "RETLET"
      ]
    },
    {
      "rt": 17962,
      "responses": "{\"Q0\":\"The answer to the blue colored anagram will be shown after 1 minute.\"}",
      "trial_type": "survey-multi-choice",
      "trial_index": 3,
      "time_elapsed": 99226,
      "internal_node_id": "0.0-2.0-1.0",
      "responseType": "finish",
      "participantID": "19d117t23980ptcavcgp2ryt5dr964cq",
      "black_problems": [
        "LYLE"
      ],
      "blue_problems": [
        "RETLET"
      ]
    },
    {
      "rt": 9167,
      "stimulus": "<center><p>Now the <b style=\"color:#069\">blue</b> anagram will be shown to you.</p> <p>If you are not able to solve the anagram in <b>1 minute</b>, the answer will be shown to you.</p> <p>Press 'v' to view the anagram. </p></center>",
      "key_press": 86,
      "trial_type": "html-keyboard-response",
      "trial_index": 4,
      "time_elapsed": 108394,
      "internal_node_id": "0.0-3.0-0.0",
      "responseType": "finish",
      "participantID": "19d117t23980ptcavcgp2ryt5dr964cq",
      "black_problems": [
        "LYLE"
      ],
      "blue_problems": [
        "RETLET"
      ]
    },
    {
      "rt": 11918,
      "responses": "{\"Q0\":\"teller\"}",
      "trial_type": "survey-text",
      "trial_index": 5,
      "time_elapsed": 120313,
      "internal_node_id": "0.0-3.0-1.0",
      "responseType": "finish",
      "participantID": "19d117t23980ptcavcgp2ryt5dr964cq",
      "black_problems": [
        "LYLE"
      ],
      "blue_problems": [
        "RETLET"
      ]
    },
    {
      "rt": 1571,
      "stimulus": "<center>The answer is: <h2 style=\"color:#069\"><p>LETTER</p></h2><br/><br/></center>",
      "button_pressed": "0",
      "trial_type": "html-button-response",
      "trial_index": 6,
      "time_elapsed": 121885,
      "internal_node_id": "0.0-3.0-2.0-0.0",
      "responseType": "finish",
      "participantID": "19d117t23980ptcavcgp2ryt5dr964cq",
      "black_problems": [
        "LYLE"
      ],
      "blue_problems": [
        "RETLET"
      ]
    },
    {
      "rt": 9888,
      "responses": "{\"Q0\":6}",
      "trial_type": "survey-likert",
      "trial_index": 7,
      "time_elapsed": 131775,
      "internal_node_id": "0.0-3.0-3.0-0.0",
      "responseType": "finish",
      "participantID": "19d117t23980ptcavcgp2ryt5dr964cq",
      "black_problems": [
        "LYLE"
      ],
      "blue_problems": [
        "RETLET"
      ]
    },
    {
      "rt": 3468,
      "stimulus": "<center><p>Now the <b>black</b> anagram will be shown to you.</p> <p>If you are not able to solve the anagram in <b>1 minute</b>, you will be taken to the next screen.</p> <p>Press 'v' to view the anagram. </p></center>",
      "key_press": 86,
      "trial_type": "html-keyboard-response",
      "trial_index": 8,
      "time_elapsed": 135250,
      "internal_node_id": "0.0-3.1-0.1",
      "responseType": "finish",
      "participantID": "19d117t23980ptcavcgp2ryt5dr964cq",
      "black_problems": [
        "LYLE"
      ],
      "blue_problems": [
        "RETLET"
      ]
    },
    {
      "rt": 12001,
      "responses": "{\"Q0\":\"yell\"}",
      "trial_type": "survey-text",
      "trial_index": 9,
      "time_elapsed": 147251,
      "internal_node_id": "0.0-3.1-1.1",
      "responseType": "finish",
      "participantID": "19d117t23980ptcavcgp2ryt5dr964cq",
      "black_problems": [
        "LYLE"
      ],
      "blue_problems": [
        "RETLET"
      ]
    },
    {
      "rt": 6612,
      "responses": "{\"Q0\":6}",
      "trial_type": "survey-likert",
      "trial_index": 10,
      "time_elapsed": 153864,
      "internal_node_id": "0.0-3.1-3.1-0.1",
      "responseType": "finish",
      "participantID": "19d117t23980ptcavcgp2ryt5dr964cq",
      "black_problems": [
        "LYLE"
      ],
      "blue_problems": [
        "RETLET"
      ]
    }
  ],
  "__v": 0
},{
  "_id": {
    "$oid": "625234b337ac5e0004f57cf9"
  },
  "data": [
    {
      "rt": 7236,
      "responses": "{\"Q0\":\" I consent to participate\"}",
      "trial_type": "survey-multi-choice",
      "trial_index": 0,
      "time_elapsed": 7247,
      "internal_node_id": "0.0-0.0",
      "responseType": "finish",
      "participantID": "8cbfe5q7h0jmsw4n388h7z0epefawge4",
      "black_problems": [
        "ECELT"
      ],
      "blue_problems": [
        "YUOEJRN"
      ]
    },
    {
      "trial_type": "call-function",
      "trial_index": 1,
      "time_elapsed": 7258,
      "internal_node_id": "0.0-1.0",
      "responseType": "finish",
      "participantID": "8cbfe5q7h0jmsw4n388h7z0epefawge4",
      "black_problems": [
        "ECELT"
      ],
      "blue_problems": [
        "YUOEJRN"
      ]
    },
    {
      "view_history": "[{\"page_index\":0,\"viewing_time\":26147},{\"page_index\":1,\"viewing_time\":21060},{\"page_index\":2,\"viewing_time\":5930}]",
      "rt": 53137,
      "trial_type": "instructions",
      "trial_index": 2,
      "time_elapsed": 60395,
      "internal_node_id": "0.0-2.0-0.0",
      "responseType": "finish",
      "participantID": "8cbfe5q7h0jmsw4n388h7z0epefawge4",
      "black_problems": [
        "ECELT"
      ],
      "blue_problems": [
        "YUOEJRN"
      ]
    },
    {
      "rt": 11515,
      "responses": "{\"Q0\":\"The answer to the blue colored anagram will be shown after 1 minute.\"}",
      "trial_type": "survey-multi-choice",
      "trial_index": 3,
      "time_elapsed": 71916,
      "internal_node_id": "0.0-2.0-1.0",
      "responseType": "finish",
      "participantID": "8cbfe5q7h0jmsw4n388h7z0epefawge4",
      "black_problems": [
        "ECELT"
      ],
      "blue_problems": [
        "YUOEJRN"
      ]
    },
    {
      "rt": 3019,
      "stimulus": "<center><p>Now the <b style=\"color:#069\">blue</b> anagram will be shown to you.</p> <p>If you are not able to solve the anagram in <b>1 minute</b>, the answer will be shown to you.</p> <p>Press 'v' to view the anagram. </p></center>",
      "key_press": 86,
      "trial_type": "html-keyboard-response",
      "trial_index": 4,
      "time_elapsed": 74936,
      "internal_node_id": "0.0-3.0-0.0",
      "responseType": "finish",
      "participantID": "8cbfe5q7h0jmsw4n388h7z0epefawge4",
      "black_problems": [
        "ECELT"
      ],
      "blue_problems": [
        "YUOEJRN"
      ]
    },
    {
      "rt": 15005,
      "responses": "{\"Q0\":\"\"}",
      "trial_type": "survey-text",
      "trial_index": 5,
      "time_elapsed": 89944,
      "internal_node_id": "0.0-3.0-1.0",
      "responseType": "finish",
      "participantID": "8cbfe5q7h0jmsw4n388h7z0epefawge4",
      "black_problems": [
        "ECELT"
      ],
      "blue_problems": [
        "YUOEJRN"
      ]
    },
    {
      "rt": 3681,
      "stimulus": "<center>The answer is: <h2 style=\"color:#069\"><p>JOURNEY</p></h2><br/><br/></center>",
      "button_pressed": "0",
      "trial_type": "html-button-response",
      "trial_index": 6,
      "time_elapsed": 93626,
      "internal_node_id": "0.0-3.0-2.0-0.0",
      "responseType": "finish",
      "participantID": "8cbfe5q7h0jmsw4n388h7z0epefawge4",
      "black_problems": [
        "ECELT"
      ],
      "blue_problems": [
        "YUOEJRN"
      ]
    },
    {
      "rt": 7362,
      "responses": "{\"Q0\":0}",
      "trial_type": "survey-likert",
      "trial_index": 7,
      "time_elapsed": 100989,
      "internal_node_id": "0.0-3.0-3.0-0.0",
      "responseType": "finish",
      "participantID": "8cbfe5q7h0jmsw4n388h7z0epefawge4",
      "black_problems": [
        "ECELT"
      ],
      "blue_problems": [
        "YUOEJRN"
      ]
    },
    {
      "rt": 2305,
      "stimulus": "<center><p>Now the <b>black</b> anagram will be shown to you.</p> <p>If you are not able to solve the anagram in <b>1 minute</b>, you will be taken to the next screen.</p> <p>Press 'v' to view the anagram. </p></center>",
      "key_press": 86,
      "trial_type": "html-keyboard-response",
      "trial_index": 8,
      "time_elapsed": 103303,
      "internal_node_id": "0.0-3.1-0.1",
      "responseType": "finish",
      "participantID": "8cbfe5q7h0jmsw4n388h7z0epefawge4",
      "black_problems": [
        "ECELT"
      ],
      "blue_problems": [
        "YUOEJRN"
      ]
    },
    {
      "rt": 29858,
      "responses": "{\"Q0\":\"cleet\"}",
      "trial_type": "survey-text",
      "trial_index": 9,
      "time_elapsed": 133162,
      "internal_node_id": "0.0-3.1-1.1",
      "responseType": "finish",
      "participantID": "8cbfe5q7h0jmsw4n388h7z0epefawge4",
      "black_problems": [
        "ECELT"
      ],
      "blue_problems": [
        "YUOEJRN"
      ]
    },
    {
      "rt": 5182,
      "responses": "{\"Q0\":4}",
      "trial_type": "survey-likert",
      "trial_index": 10,
      "time_elapsed": 138346,
      "internal_node_id": "0.0-3.1-3.1-0.1",
      "responseType": "finish",
      "participantID": "8cbfe5q7h0jmsw4n388h7z0epefawge4",
      "black_problems": [
        "ECELT"
      ],
      "blue_problems": [
        "YUOEJRN"
      ]
    }
  ],
  "__v": 0
},{
  "_id": {
    "$oid": "625234b737ac5e0004f57cfa"
  },
  "data": [
    {
      "rt": 7987,
