{"_id":{"$oid":"5d66e79815e625000487c674"},"data":{"responseType":"start","participantID":"ha3xwcu8jzge5ggolb18swwkuwzv2497","conditionNumber":"none"},"__v":0}
{"_id":{"$oid":"5d66e7b315e625000487c675"},"data":{"responseType":"start","participantID":"440vqddxuxzv1rfl5wejub0kcyj851cb","conditionNumber":"hint"},"__v":0}
{"_id":{"$oid":"5d66e7dc15e625000487c676"},"data":{"responseType":"start","participantID":"xozzd3jb7eektsw66rcwrj95fw1ydnb1","conditionNumber":"hint"},"__v":0}
{"_id":{"$oid":"5d66e80715e625000487c677"},"data":[{"rt":5980,"responses":"{\"Q0\":\" I consent to participate \"}","trial_type":"survey-multi-choice","trial_index":0,"time_elapsed":5985,"internal_node_id":"0.0-0.0","responseType":"finish","participantID":"ha3xwcu8jzge5ggolb18swwkuwzv2497","conditionNumber":"none"},{"trial_type":"call-function","trial_index":1,"time_elapsed":5988,"internal_node_id":"0.0-1.0","responseType":"finish","participantID":"ha3xwcu8jzge5ggolb18swwkuwzv2497","conditionNumber":"none"},{"rt":19261,"stimulus":"\u003ch1 id=\"welcome\"\u003eWelcome\u003c/h1\u003e\n\u003cp\u003eWelcome to the Experiment! In this experiment, we will give you one \u003cem\u003eanagram\u003c/em\u003e to solve. An \u003cem\u003eanagram\u003c/em\u003e is simply a word or phrase formed by rearranging the letters of another word or phrase. For example:\u003c/p\u003e\n\u003cul\u003e\n\u003cli\u003e\u003cstrong\u003ePOKER\u003c/strong\u003e is an anagram of \u003cstrong\u003ePKOER\u003c/strong\u003e\u003c/li\u003e\n\u003cli\u003e\u003cstrong\u003ePHONE\u003c/strong\u003e is an anagram of \u003cstrong\u003ePOEHN\u003c/strong\u003e\u003c/li\u003e\n\u003c/ul\u003e\n\u003cp\u003eWe kindly request for your full attention for the experiment and ask you to refrain from using Google or other search engines. \u003c/p\u003e\n\u003cp\u003ePlease press the \u003cstrong\u003e'n' key\u003c/strong\u003e to continue once you understand.\u003c/p\u003e","key_press":78,"trial_type":"html-keyboard-response","trial_index":2,"time_elapsed":25252,"internal_node_id":"0.0-2.0","responseType":"finish","participantID":"ha3xwcu8jzge5ggolb18swwkuwzv2497","conditionNumber":"none"},{"rt":19649,"stimulus":"\u003ch1 id=\"instructions\"\u003eInstructions\u003c/h1\u003e\n\u003cp\u003eWhen you click next, you will be presented with an anagram that will be displayed for 4 seconds. Following that, the \u003cem\u003esame\u003c/em\u003e anagram will be presented to you again in a \u003cem\u003edifferent\u003c/em\u003e configuration for 4 seconds. This will be repeated multiple times and your goal is to solve the anagram by the end of the experiment. \u003c/p\u003e\n\u003cp\u003eAs an example, you may be presented with random configurations such as: \u003cstrong\u003eONLEM\u003c/strong\u003e, \u003cstrong\u003eMOELN\u003c/strong\u003e, and \u003cstrong\u003eNMEOL\u003c/strong\u003e. Here, these configurations come from the same anagram, LEMON and your goal was figuring out the underlying anagram. \u003c/p\u003e\n\u003cp\u003ePlease press the \u003cstrong\u003e'm' key\u003c/strong\u003e to continue once you understand.\u003c/p\u003e","key_press":77,"trial_type":"html-keyboard-response","trial_index":3,"time_elapsed":44910,"internal_node_id":"0.0-3.0","responseType":"finish","participantID":"ha3xwcu8jzge5ggolb18swwkuwzv2497","conditionNumber":"none"},{"rt":6917,"stimulus":"\u003ch1 id=\"instructions\"\u003eInstructions\u003c/h1\u003e\n\u003cp\u003eNow, we will present you the anagram which you have to solve. We will present the anagram to you in various different configurations. Please try your best to solve the anagram. \u003c/p\u003e\n\u003cp\u003ePlease press the \u003cstrong\u003e'b' key\u003c/strong\u003e to continue.\u003c/p\u003e","key_press":66,"trial_type":"html-keyboard-response","trial_index":4,"time_elapsed":51829,"internal_node_id":"0.0-4.0","responseType":"finish","participantID":"ha3xwcu8jzge5ggolb18swwkuwzv2497","conditionNumber":"none"},{"rt":null,"stimulus":"\u003cp\u003e\u003ch1\u003eOCRAIGN\u003c/h1\u003e\u003c/p\u003e","key_press":null,"trial_type":"html-keyboard-response","trial_index":5,"time_elapsed":55831,"internal_node_id":"0.0-5.0-0.0","responseType":"finish","participantID":"ha3xwcu8jzge5ggolb18swwkuwzv2497","conditionNumber":"none"},{"rt":7834,"responses":"{\"Q0\":1}","trial_type":"survey-likert","trial_index":6,"time_elapsed":63671,"internal_node_id":"0.0-5.0-1.0","responseType":"finish","participantID":"ha3xwcu8jzge5ggolb18swwkuwzv2497","conditionNumber":"none"},{"rt":null,"stimulus":"\u003cp\u003eNow we will show you another configuration of the anagram\u003c/p\u003e","key_press":null,"trial_type":"html-keyboard-response","trial_index":7,"time_elapsed":69674,"internal_node_id":"0.0-5.0-2.0","responseType":"finish","participantID":"ha3xwcu8jzge5ggolb18swwkuwzv2497","conditionNumber":"none"},{"rt":null,"stimulus":"\u003cp\u003e\u003ch1\u003eCROAIGN\u003c/h1\u003e\u003c/p\u003e","key_press":null,"trial_type":"html-keyboard-response","trial_index":8,"time_elapsed":73678,"internal_node_id":"0.0-5.1-0.1","responseType":"finish","participantID":"ha3xwcu8jzge5ggolb18swwkuwzv2497","conditionNumber":"none"},{"rt":6157,"responses":"{\"Q0\":1}","trial_type":"survey-likert","trial_index":9,"time_elapsed":79838,"internal_node_id":"0.0-5.1-1.1","responseType":"finish","participantID":"ha3xwcu8jzge5ggolb18swwkuwzv2497","conditionNumber":"none"},{"rt":null,"stimulus":"\u003cp\u003eNow we will show you another configuration of the anagram\u003c/p\u003e","key_press":null,"trial_type":"html-keyboard-response","trial_index":10,"time_elapsed":85840,"internal_node_id":"0.0-5.1-2.1","responseType":"finish","participantID":"ha3xwcu8jzge5ggolb18swwkuwzv2497","conditionNumber":"none"},{"rt":null,"stimulus":"\u003cp\u003e\u003ch1\u003eNACGIOR\u003c/h1\u003e\u003c/p\u003e","key_press":null,"trial_type":"html-keyboard-response","trial_index":11,"time_elapsed":89851,"internal_node_id":"0.0-5.2-0.2","responseType":"finish","participantID":"ha3xwcu8jzge5ggolb18swwkuwzv2497","conditionNumber":"none"},{"rt":4439,"responses":"{\"Q0\":1}","trial_type":"survey-likert","trial_index":12,"time_elapsed":94295,"internal_node_id":"0.0-5.2-1.2","responseType":"finish","participantID":"ha3xwcu8jzge5ggolb18swwkuwzv2497","conditionNumber":"none"},{"rt":null,"stimulus":"\u003cp\u003eNow we will show you another configuration of the anagram\u003c/p\u003e","key_press":null,"trial_type":"html-keyboard-response","trial_index":13,"time_elapsed":100296,"internal_node_id":"0.0-5.2-2.2","responseType":"finish","participantID":"ha3xwcu8jzge5ggolb18swwkuwzv2497","conditionNumber":"none"},{"rt":null,"stimulus":"\u003cp\u003e\u003ch1\u003eORAGNIC\u003c/h1\u003e\u003c/p\u003e","key_press":null,"trial_type":"html-keyboard-response","trial_index":14,"time_elapsed":104299,"internal_node_id":"0.0-5.3-0.3","responseType":"finish","participantID":"ha3xwcu8jzge5ggolb18swwkuwzv2497","conditionNumber":"none"},{"rt":4515,"responses":"{\"Q0\":9}","trial_type":"survey-likert","trial_index":15,"time_elapsed":108814,"internal_node_id":"0.0-5.3-1.3","responseType":"finish","participantID":"ha3xwcu8jzge5ggolb18swwkuwzv2497","conditionNumber":"none"},{"rt":null,"stimulus":"\u003cp\u003eNow we will show you another configuration of the anagram\u003c/p\u003e","key_press":null,"trial_type":"html-keyboard-response","trial_index":16,"time_elapsed":108818,"internal_node_id":"0.0-5.3-2.3","responseType":"finish","participantID":"ha3xwcu8jzge5ggolb18swwkuwzv2497","conditionNumber":"none"},{"rt":7695,"responses":"{\"Q0\":9}","trial_type":"survey-likert","trial_index":17,"time_elapsed":116513,"internal_node_id":"0.0-6.0","responseType":"finish","participantID":"ha3xwcu8jzge5ggolb18swwkuwzv2497","conditionNumber":"none"}],"__v":0}
{"_id":{"$oid":"5d66e81e15e625000487c678"},"data":[{"rt":40502,"responses":"{\"Q0\":\" I consent to participate \"}","trial_type":"survey-multi-choice","trial_index":0,"time_elapsed":40504,"internal_node_id":"0.0-0.0","responseType":"finish","participantID":"440vqddxuxzv1rfl5wejub0kcyj851cb","conditionNumber":"hint"},{"trial_type":"call-function","trial_index":1,"time_elapsed":40507,"internal_node_id":"0.0-1.0","responseType":"finish","participantID":"440vqddxuxzv1rfl5wejub0kcyj851cb","conditionNumber":"hint"},{"rt":12425,"stimulus":"\u003ch1 id=\"welcome\"\u003eWelcome\u003c/h1\u003e\n\u003cp\u003eWelcome to the Experiment! In this experiment, we will give you one \u003cem\u003eanagram\u003c/em\u003e to solve. An \u003cem\u003eanagram\u003c/em\u003e is simply a word or phrase formed by rearranging the letters of another word or phrase. For example:\u003c/p\u003e\n\u003cul\u003e\n\u003cli\u003e\u003cstrong\u003ePOKER\u003c/strong\u003e is an anagram of \u003cstrong\u003ePKOER\u003c/strong\u003e\u003c/li\u003e\n\u003cli\u003e\u003cstrong\u003ePHONE\u003c/strong\u003e is an anagram of \u003cstrong\u003ePOEHN\u003c/strong\u003e\u003c/li\u003e\n\u003c/ul\u003e\n\u003cp\u003eWe kindly request for your full attention for the experiment and ask you to refrain from using Google or other search engines. \u003c/p\u003e\n\u003cp\u003ePlease press the \u003cstrong\u003e'n' key\u003c/strong\u003e to continue once you understand.\u003c/p\u003e","key_press":78,"trial_type":"html-keyboard-response","trial_index":2,"time_elapsed":52933,"internal_node_id":"0.0-2.0","responseType":"finish","participantID":"440vqddxuxzv1rfl5wejub0kcyj851cb","conditionNumber":"hint"},{"rt":21065,"stimulus":"\u003ch1 id=\"instructions\"\u003eInstructions\u003c/h1\u003e\n\u003cp\u003eWhen you click next, you will be presented with an anagram that will be displayed for 4 seconds. Following that, the \u003cem\u003esame\u003c/em\u003e anagram will be presented to you again in a \u003cem\u003edifferent\u003c/em\u003e configuration for 4 seconds. \u003c/p\u003e\n\u003cp\u003eIn total, we will present the anagram to you in \u003cstrong\u003ethree\u003c/strong\u003e different configurations. If you have not figured the answer to the anagram by then, then we will show a much \u003cstrong\u003eeasier\u003c/strong\u003e configuration of that anagram to you. \u003c/p\u003e\n\u003cp\u003eAs an example, you may be presented with random configurations such as: \u003cstrong\u003eONLEM\u003c/strong\u003e, \u003cstrong\u003eMOELN\u003c/strong\u003e, \u003cstrong\u003eNMEOL\u003c/strong\u003e, and finally the easier configuration, \u003cstrong\u003eLMEON\u003c/strong\u003e. Here, these configurations come from the same anagram, LEMON and your goal was figuring out the underlying anagram. \u003c/p\u003e\n\u003cp\u003ePlease press the \u003cstrong\u003e'm' key\u003c/strong\u003e to continue once you understand.\u003c/p\u003e","key_press":77,"trial_type":"html-keyboard-response","trial_index":3,"time_elapsed":74000,"internal_node_id":"0.0-3.0","responseType":"finish","participantID":"440vqddxuxzv1rfl5wejub0kcyj851cb","conditionNumber":"hint"},{"rt":11137,"stimulus":"\u003ch1 id=\"instructions\"\u003eInstructions\u003c/h1\u003e\n\u003cp\u003eNow, we will present you the anagram which you have to solve. We will present the anagram to you in \u003cstrong\u003ethree\u003c/strong\u003e different configurations. If you have not figured the answer to the anagram by then, then we will show a much \u003cstrong\u003eeasier\u003c/strong\u003e configuration to you. \u003c/p\u003e\n\u003cp\u003ePlease press the \u003cstrong\u003e'b' key\u003c/strong\u003e to continue.\u003c/p\u003e","key_press":66,"trial_type":"html-keyboard-response","trial_index":4,"time_elapsed":85138,"internal_node_id":"0.0-4.0","responseType":"finish","participantID":"440vqddxuxzv1rfl5wejub0kcyj851cb","conditionNumber":"hint"},{"rt":null,"stimulus":"\u003cp\u003e\u003ch1\u003eOCRAIGN\u003c/h1\u003e\u003c/p\u003e","key_press":null,"trial_type":"html-keyboard-response","trial_index":5,"time_elapsed":89140,"internal_node_id":"0.0-5.0-0.0","responseType":"finish","participantID":"440vqddxuxzv1rfl5wejub0kcyj851cb","conditionNumber":"hint"},{"rt":5482,"responses":"{\"Q0\":7}","trial_type":"survey-likert","trial_index":6,"time_elapsed":94625,"internal_node_id":"0.0-5.0-1.0","responseType":"finish","participantID":"440vqddxuxzv1rfl5wejub0kcyj851cb","conditionNumber":"hint"},{"rt":null,"stimulus":"\u003cp\u003eNow we will show you another configuration of the anagram\u003c/p\u003e","key_press":null,"trial_type":"html-keyboard-response","trial_index":7,"time_elapsed":100627,"internal_node_id":"0.0-5.0-2.0","responseType":"finish","participantID":"440vqddxuxzv1rfl5wejub0kcyj851cb","conditionNumber":"hint"},{"rt":null,"stimulus":"\u003cp\u003e\u003ch1\u003eCROAIGN\u003c/h1\u003e\u003c/p\u003e","key_press":null,"trial_type":"html-keyboard-response","trial_index":8,"time_elapsed":104631,"internal_node_id":"0.0-5.1-0.1","responseType":"finish","participantID":"440vqddxuxzv1rfl5wejub0kcyj851cb","conditionNumber":"hint"},{"rt":9505,"responses":"{\"Q0\":7}","trial_type":"survey-likert","trial_index":9,"time_elapsed":114136,"internal_node_id":"0.0-5.1-1.1","responseType":"finish","participantID":"440vqddxuxzv1rfl5wejub0kcyj851cb","conditionNumber":"hint"},{"rt":null,"stimulus":"\u003cp\u003eNow we will show you another configuration of the anagram\u003c/p\u003e","key_press":null,"trial_type":"html-keyboard-response","trial_index":10,"time_elapsed":120137,"internal_node_id":"0.0-5.1-2.1","responseType":"finish","participantID":"440vqddxuxzv1rfl5wejub0kcyj851cb","conditionNumber":"hint"},{"rt":null,"stimulus":"\u003cp\u003e\u003ch1\u003eNACGIOR\u003c/h1\u003e\u003c/p\u003e","key_press":null,"trial_type":"html-keyboard-response","trial_index":11,"time_elapsed":124138,"internal_node_id":"0.0-5.2-0.2","responseType":"finish","participantID":"440vqddxuxzv1rfl5wejub0kcyj851cb","conditionNumber":"hint"},{"rt":5108,"responses":"{\"Q0\":5}","trial_type":"survey-likert","trial_index":12,"time_elapsed":129248,"internal_node_id":"0.0-5.2-1.2","responseType":"finish","participantID":"440vqddxuxzv1rfl5wejub0kcyj851cb","conditionNumber":"hint"},{"rt":null,"stimulus":"\u003cp\u003eWe will now show you a much \u003cb\u003eeasier\u003c/b\u003e configuration of this anagram\u003c/p\u003e","key_press":null,"trial_type":"html-keyboard-response","trial_index":13,"time_elapsed":135249,"internal_node_id":"0.0-5.2-2.2","responseType":"finish","participantID":"440vqddxuxzv1rfl5wejub0kcyj851cb","conditionNumber":"hint"},{"rt":null,"stimulus":"\u003cp\u003e\u003ch1\u003eORAGNIC\u003c/h1\u003e\u003c/p\u003e","key_press":null,"trial_type":"html-keyboard-response","trial_index":14,"time_elapsed":139250,"internal_node_id":"0.0-5.3-0.3","responseType":"finish","participantID":"440vqddxuxzv1rfl5wejub0kcyj851cb","conditionNumber":"hint"},{"rt":3637,"responses":"{\"Q0\":9}","trial_type":"survey-likert","trial_index":15,"time_elapsed":142888,"internal_node_id":"0.0-5.3-1.3","responseType":"finish","participantID":"440vqddxuxzv1rfl5wejub0kcyj851cb","conditionNumber":"hint"},{"rt":null,"stimulus":"\u003cp\u003eNow we will show you another configuration of the anagram\u003c/p\u003e","key_press":null,"trial_type":"html-keyboard-response","trial_index":16,"time_elapsed":142890,"internal_node_id":"0.0-5.3-2.3","responseType":"finish","participantID":"440vqddxuxzv1rfl5wejub0kcyj851cb","conditionNumber":"hint"},{"rt":4462,"responses":"{\"Q0\":9}","trial_type":"survey-likert","trial_index":17,"time_elapsed":147353,"internal_node_id":"0.0-6.0","responseType":"finish","participantID":"440vqddxuxzv1rfl5wejub0kcyj851cb","conditionNumber":"hint"}],"__v":0}
{"_id":{"$oid":"5d66e82d15e625000487c679"},"data":{"responseType":"start","participantID":"7qkonzfahr40hwqew4baz6roywf831t3","conditionNumber":"none"},"__v":0}
{"_id":{"$oid":"5d66e84415e625000487c67a"},"data":[{"rt":2861,"responses":"{\"Q0\":\" I consent to participate \"}","trial_type":"survey-multi-choice","trial_index":0,"time_elapsed":2864,"internal_node_id":"0.0-0.0","responseType":"finish","participantID":"xozzd3jb7eektsw66rcwrj95fw1ydnb1","conditionNumber":"hint"},{"trial_type":"call-function","trial_index":1,"time_elapsed":2869,"internal_node_id":"0.0-1.0","responseType":"finish","participantID":"xozzd3jb7eektsw66rcwrj95fw1ydnb1","conditionNumber":"hint"},{"rt":5832,"stimulus":"\u003ch1 id=\"welcome\"\u003eWelcome\u003c/h1\u003e\n\u003cp\u003eWelcome to the Experiment! In this experiment, we will give you one \u003cem\u003eanagram\u003c/em\u003e to solve. An \u003cem\u003eanagram\u003c/em\u003e is simply a word or phrase formed by rearranging the letters of another word or phrase. For example:\u003c/p\u003e\n\u003cul\u003e\n\u003cli\u003e\u003cstrong\u003ePOKER\u003c/strong\u003e is an anagram of \u003cstrong\u003ePKOER\u003c/strong\u003e\u003c/li\u003e\n\u003cli\u003e\u003cstrong\u003ePHONE\u003c/strong\u003e is an anagram of \u003cstrong\u003ePOEHN\u003c/strong\u003e\u003c/li\u003e\n\u003c/ul\u003e\n\u003cp\u003eWe kindly request for your full attention for the experiment and ask you to refrain from using Google or other search engines. \u003c/p\u003e\n\u003cp\u003ePlease press the \u003cstrong\u003e'n' key\u003c/strong\u003e to continue once you understand.\u003c/p\u003e","key_press":78,"trial_type":"html-keyboard-response","trial_index":2,"time_elapsed":8702,"internal_node_id":"0.0-2.0","responseType":"finish","participantID":"xozzd3jb7eektsw66rcwrj95fw1ydnb1","conditionNumber":"hint"},{"rt":15007,"stimulus":"\u003ch1 id=\"instructions\"\u003eInstructions\u003c/h1\u003e\n\u003cp\u003eWhen you click next, you will be presented with an anagram that will be displayed for 4 seconds. Following that, the \u003cem\u003esame\u003c/em\u003e anagram will be presented to you again in a \u003cem\u003edifferent\u003c/em\u003e configuration for 4 seconds. \u003c/p\u003e\n\u003cp\u003eIn total, we will present the anagram to you in \u003cstrong\u003ethree\u003c/strong\u003e different configurations. If you have not figured the answer to the anagram by then, then we will show a much \u003cstrong\u003eeasier\u003c/strong\u003e configuration of that anagram to you. \u003c/p\u003e\n\u003cp\u003eAs an example, you may be presented with random configurations such as: \u003cstrong\u003eONLEM\u003c/strong\u003e, \u003cstrong\u003eMOELN\u003c/strong\u003e, \u003cstrong\u003eNMEOL\u003c/strong\u003e, and finally the easier configuration, \u003cstrong\u003eLMEON\u003c/strong\u003e. Here, these configurations come from the same anagram, LEMON and your goal was figuring out the underlying anagram. \u003c/p\u003e\n\u003cp\u003ePlease press the \u003cstrong\u003e'm' key\u003c/strong\u003e to continue once you understand.\u003c/p\u003e","key_press":77,"trial_type":"html-keyboard-response","trial_index":3,"time_elapsed":23709,"internal_node_id":"0.0-3.0","responseType":"finish","participantID":"xozzd3jb7eektsw66rcwrj95fw1ydnb1","conditionNumber":"hint"},{"rt":4655,"stimulus":"\u003ch1 id=\"instructions\"\u003eInstructions\u003c/h1\u003e\n\u003cp\u003eNow, we will present you the anagram which you have to solve. We will present the anagram to you in \u003cstrong\u003ethree\u003c/strong\u003e different configurations. If you have not figured the answer to the anagram by then, then we will show a much \u003cstrong\u003eeasier\u003c/strong\u003e configuration to you. \u003c/p\u003e\n\u003cp\u003ePlease press the \u003cstrong\u003e'b' key\u003c/strong\u003e to continue.\u003c/p\u003e","key_press":66,"trial_type":"html-keyboard-response","trial_index":4,"time_elapsed":28367,"internal_node_id":"0.0-4.0","responseType":"finish","participantID":"xozzd3jb7eektsw66rcwrj95fw1ydnb1","conditionNumber":"hint"},{"rt":null,"stimulus":"\u003cp\u003e\u003ch1\u003eOCRAIGN\u003c/h1\u003e\u003c/p\u003e","key_press":null,"trial_type":"html-keyboard-response","trial_index":5,"time_elapsed":32369,"internal_node_id":"0.0-5.0-0.0","responseType":"finish","participantID":"xozzd3jb7eektsw66rcwrj95fw1ydnb1","conditionNumber":"hint"},{"rt":27689,"responses":"{\"Q0\":7}","trial_type":"survey-likert","trial_index":6,"time_elapsed":60059,"internal_node_id":"0.0-5.0-1.0","responseType":"finish","participantID":"xozzd3jb7eektsw66rcwrj95fw1ydnb1","conditionNumber":"hint"},{"rt":null,"stimulus":"\u003cp\u003eNow we will show you another configuration of the anagram\u003c/p\u003e","key_press":null,"trial_type":"html-keyboard-response","trial_index":7,"time_elapsed":66064,"internal_node_id":"0.0-5.0-2.0","responseType":"finish","participantID":"xozzd3jb7eektsw66rcwrj95fw1ydnb1","conditionNumber":"hint"},{"rt":null,"stimulus":"\u003cp\u003e\u003ch1\u003eCROAIGN\u003c/h1\u003e\u003c/p\u003e","key_press":null,"trial_type":"html-keyboard-response","trial_index":8,"time_elapsed":70820,"internal_node_id":"0.0-5.1-0.1","responseType":"finish","participantID":"xozzd3jb7eektsw66rcwrj95fw1ydnb1","conditionNumber":"hint"},{"rt":4043,"responses":"{\"Q0\":8}","trial_type":"survey-likert","trial_index":9,"time_elapsed":74863,"internal_node_id":"0.0-5.1-1.1","responseType":"finish","participantID":"xozzd3jb7eektsw66rcwrj95fw1ydnb1","conditionNumber":"hint"},{"rt":null,"stimulus":"\u003cp\u003eNow we will show you another configuration of the anagram\u003c/p\u003e","key_press":null,"trial_type":"html-keyboard-response","trial_index":10,"time_elapsed":81820,"internal_node_id":"0.0-5.1-2.1","responseType":"finish","participantID":"xozzd3jb7eektsw66rcwrj95fw1ydnb1","conditionNumber":"hint"},{"rt":null,"stimulus":"\u003cp\u003e\u003ch1\u003eNACGIOR\u003c/h1\u003e\u003c/p\u003e","key_press":null,"trial_type":"html-keyboard-response","trial_index":11,"time_elapsed":85821,"internal_node_id":"0.0-5.2-0.2","responseType":"finish","participantID":"xozzd3jb7eektsw66rcwrj95fw1ydnb1","conditionNumber":"hint"},{"rt":1696,"responses":"{\"Q0\":9}","trial_type":"survey-likert","trial_index":12,"time_elapsed":87517,"internal_node_id":"0.0-5.2-1.2","responseType":"finish","participantID":"xozzd3jb7eektsw66rcwrj95fw1ydnb1","conditionNumber":"hint"},{"rt":null,"stimulus":"\u003cp\u003eWe will now show you a much \u003cb\u003eeasier\u003c/b\u003e configuration of this anagram\u003c/p\u003e","key_press":null,"trial_type":"html-keyboard-response","trial_index":13,"time_elapsed":93521,"internal_node_id":"0.0-5.2-2.2","responseType":"finish","participantID":"xozzd3jb7eektsw66rcwrj95fw1ydnb1","conditionNumber":"hint"},{"rt":null,"stimulus":"\u003cp\u003e\u003ch1\u003eORAGNIC\u003c/h1\u003e\u003c/p\u003e","key_press":null,"trial_type":"html-keyboard-response","trial_index":14,"time_elapsed":97523,"internal_node_id":"0.0-5.3-0.3","responseType":"finish","participantID":"xozzd3jb7eektsw66rcwrj95fw1ydnb1","conditionNumber":"hint"},{"rt":3200,"responses":"{\"Q0\":9}","trial_type":"survey-likert","trial_index":15,"time_elapsed":100723,"internal_node_id":"0.0-5.3-1.3","responseType":"finish","participantID":"xozzd3jb7eektsw66rcwrj95fw1ydnb1","conditionNumber":"hint"},{"rt":null,"stimulus":"\u003cp\u003eNow we will show you another configuration of the anagram\u003c/p\u003e","key_press":null,"trial_type":"html-keyboard-response","trial_index":16,"time_elapsed":100728,"internal_node_id":"0.0-5.3-2.3","responseType":"finish","participantID":"xozzd3jb7eektsw66rcwrj95fw1ydnb1","conditionNumber":"hint"},{"rt":5545,"responses":"{\"Q0\":4}","trial_type":"survey-likert","trial_index":17,"time_elapsed":106273,"internal_node_id":"0.0-6.0","responseType":"finish","participantID":"xozzd3jb7eektsw66rcwrj95fw1ydnb1","conditionNumber":"hint"}],"__v":0}
{"_id":{"$oid":"5d66e87c15e625000487c67b"},"data":{"responseType":"start","participantID":"zfcbelep2qph8drhov9xh3q9ckq959xp","conditionNumber":"none"},"__v":0}
{"_id":{"$oid":"5d66e8be15e625000487c67c"},"data":{"responseType":"start","participantID":"eagvf8zez4j6mdz46vnfc4muvb1axepe","conditionNumber":"hint"},"__v":0}
{"_id":{"$oid":"5d66e8df15e625000487c67d"},"data":[{"rt":5622,"responses":"{\"Q0\":\" I consent to participate \"}","trial_type":"survey-multi-choice","trial_index":0,"time_elapsed":5627,"internal_node_id":"0.0-0.0","responseType":"finish","participantID":"zfcbelep2qph8drhov9xh3q9ckq959xp","conditionNumber":"none"},{"trial_type":"call-function","trial_index":1,"time_elapsed":5635,"internal_node_id":"0.0-1.0","responseType":"finish","participantID":"zfcbelep2qph8drhov9xh3q9ckq959xp","conditionNumber":"none"},{"rt":10626,"stimulus":"\u003ch1 id=\"welcome\"\u003eWelcome\u003c/h1\u003e\n\u003cp\u003eWelcome to the Experiment! In this experiment, we will give you one \u003cem\u003eanagram\u003c/em\u003e to solve. An \u003cem\u003eanagram\u003c/em\u003e is simply a word or phrase formed by rearranging the letters of another word or phrase. For example:\u003c/p\u003e\n\u003cul\u003e\n\u003cli\u003e\u003cstrong\u003ePOKER\u003c/strong\u003e is an anagram of \u003cstrong\u003ePKOER\u003c/strong\u003e\u003c/li\u003e\n\u003cli\u003e\u003cstrong\u003ePHONE\u003c/strong\u003e is an anagram of \u003cstrong\u003ePOEHN\u003c/strong\u003e\u003c/li\u003e\n\u003c/ul\u003e\n\u003cp\u003eWe kindly request for your full attention for the experiment and ask you to refrain from using Google or other search engines. \u003c/p\u003e\n\u003cp\u003ePlease press the \u003cstrong\u003e'n' key\u003c/strong\u003e to continue once you understand.\u003c/p\u003e","key_press":78,"trial_type":"html-keyboard-response","trial_index":2,"time_elapsed":16261,"internal_node_id":"0.0-2.0","responseType":"finish","participantID":"zfcbelep2qph8drhov9xh3q9ckq959xp","conditionNumber":"none"},{"rt":24818,"stimulus":"\u003ch1 id=\"instructions\"\u003eInstructions\u003c/h1\u003e\n\u003cp\u003eWhen you click next, you will be presented with an anagram that will be displayed for 4 seconds. Following that, the \u003cem\u003esame\u003c/em\u003e anagram will be presented to you again in a \u003cem\u003edifferent\u003c/em\u003e configuration for 4 seconds. This will be repeated multiple times and your goal is to solve the anagram by the end of the experiment. \u003c/p\u003e\n\u003cp\u003eAs an example, you may be presented with random configurations such as: \u003cstrong\u003eONLEM\u003c/strong\u003e, \u003cstrong\u003eMOELN\u003c/strong\u003e, and \u003cstrong\u003eNMEOL\u003c/strong\u003e. Here, these configurations come from the same anagram, LEMON and your goal was figuring out the underlying anagram. \u003c/p\u003e\n\u003cp\u003ePlease press the \u003cstrong\u003e'm' key\u003c/strong\u003e to continue once you understand.\u003c/p\u003e","key_press":77,"trial_type":"html-keyboard-response","trial_index":3,"time_elapsed":41084,"internal_node_id":"0.0-3.0","responseType":"finish","participantID":"zfcbelep2qph8drhov9xh3q9ckq959xp","conditionNumber":"none"},{"rt":8974,"stimulus":"\u003ch1 id=\"instructions\"\u003eInstructions\u003c/h1\u003e\n\u003cp\u003eNow, we will present you the anagram which you have to solve. We will present the anagram to you in various different configurations. Please try your best to solve the anagram. \u003c/p\u003e\n\u003cp\u003ePlease press the \u003cstrong\u003e'b' key\u003c/strong\u003e to continue.\u003c/p\u003e","key_press":66,"trial_type":"html-keyboard-response","trial_index":4,"time_elapsed":50059,"internal_node_id":"0.0-4.0","responseType":"finish","participantID":"zfcbelep2qph8drhov9xh3q9ckq959xp","conditionNumber":"none"},{"rt":null,"stimulus":"\u003cp\u003e\u003ch1\u003eOCRAIGN\u003c/h1\u003e\u003c/p\u003e","key_press":null,"trial_type":"html-keyboard-response","trial_index":5,"time_elapsed":54063,"internal_node_id":"0.0-5.0-0.0","responseType":"finish","participantID":"zfcbelep2qph8drhov9xh3q9ckq959xp","conditionNumber":"none"},{"rt":3355,"responses":"{\"Q0\":3}","trial_type":"survey-likert","trial_index":6,"time_elapsed":57420,"internal_node_id":"0.0-5.0-1.0","responseType":"finish","participantID":"zfcbelep2qph8drhov9xh3q9ckq959xp","conditionNumber":"none"},{"rt":null,"stimulus":"\u003cp\u003eNow we will show you another configuration of the anagram\u003c/p\u003e","key_press":null,"trial_type":"html-keyboard-response","trial_index":7,"time_elapsed":63424,"internal_node_id":"0.0-5.0-2.0","responseType":"finish","participantID":"zfcbelep2qph8drhov9xh3q9ckq959xp","conditionNumber":"none"},{"rt":null,"stimulus":"\u003cp\u003e\u003ch1\u003eCROAIGN\u003c/h1\u003e\u003c/p\u003e","key_press":null,"trial_type":"html-keyboard-response","trial_index":8,"time_elapsed":67425,"internal_node_id":"0.0-5.1-0.1","responseType":"finish","participantID":"zfcbelep2qph8drhov9xh3q9ckq959xp","conditionNumber":"none"},{"rt":2561,"responses":"{\"Q0\":7}","trial_type":"survey-likert","trial_index":9,"time_elapsed":69987,"internal_node_id":"0.0-5.1-1.1","responseType":"finish","participantID":"zfcbelep2qph8drhov9xh3q9ckq959xp","conditionNumber":"none"},{"rt":null,"stimulus":"\u003cp\u003eNow we will show you another configuration of the anagram\u003c/p\u003e","key_press":null,"trial_type":"html-keyboard-response","trial_index":10,"time_elapsed":75991,"internal_node_id":"0.0-5.1-2.1","responseType":"finish","participantID":"zfcbelep2qph8drhov9xh3q9ckq959xp","conditionNumber":"none"},{"rt":null,"stimulus":"\u003cp\u003e\u003ch1\u003eNACGIOR\u003c/h1\u003e\u003c/p\u003e","key_press":null,"trial_type":"html-keyboard-response","trial_index":11,"time_elapsed":79993,"internal_node_id":"0.0-5.2-0.2","responseType":"finish","participantID":"zfcbelep2qph8drhov9xh3q9ckq959xp","conditionNumber":"none"},{"rt":3330,"responses":"{\"Q0\":9}","trial_type":"survey-likert","trial_index":12,"time_elapsed":83323,"internal_node_id":"0.0-5.2-1.2","responseType":"finish","participantID":"zfcbelep2qph8drhov9xh3q9ckq959xp","conditionNumber":"none"},{"rt":null,"stimulus":"\u003cp\u003eNow we will show you another configuration of the anagram\u003c/p\u003e","key_press":null,"trial_type":"html-keyboard-response","trial_index":13,"time_elapsed":89327,"internal_node_id":"0.0-5.2-2.2","responseType":"finish","participantID":"zfcbelep2qph8drhov9xh3q9ckq959xp","conditionNumber":"none"},{"rt":null,"stimulus":"\u003cp\u003e\u003ch1\u003eORAGNIC\u003c/h1\u003e\u003c/p\u003e","key_press":null,"trial_type":"html-keyboard-response","trial_index":14,"time_elapsed":93328,"internal_node_id":"0.0-5.3-0.3","responseType":"finish","participantID":"zfcbelep2qph8drhov9xh3q9ckq959xp","conditionNumber":"none"},{"rt":2433,"responses":"{\"Q0\":9}","trial_type":"survey-likert","trial_index":15,"time_elapsed":95763,"internal_node_id":"0.0-5.3-1.3","responseType":"finish","participantID":"zfcbelep2qph8drhov9xh3q9ckq959xp","conditionNumber":"none"},{"rt":null,"stimulus":"\u003cp\u003eNow we will show you another configuration of the anagram\u003c/p\u003e","key_press":null,"trial_type":"html-keyboard-response","trial_index":16,"time_elapsed":95768,"internal_node_id":"0.0-5.3-2.3","responseType":"finish","participantID":"zfcbelep2qph8drhov9xh3q9ckq959xp","conditionNumber":"none"},{"rt":7747,"responses":"{\"Q0\":0}","trial_type":"survey-likert","trial_index":17,"time_elapsed":103515,"internal_node_id":"0.0-6.0","responseType":"finish","participantID":"zfcbelep2qph8drhov9xh3q9ckq959xp","conditionNumber":"none"}],"__v":0}
{"_id":{"$oid":"5d66e8ff15e625000487c67e"},"data":{"responseType":"start","participantID":"vlf3cm38y5w8s17erc2spkaj3v2ekjy3","conditionNumber":"none"},"__v":0}
{"_id":{"$oid":"5d66e90a15e625000487c67f"},"data":[{"rt":4359,"responses":"{\"Q0\":\" I consent to participate \"}","trial_type":"survey-multi-choice","trial_index":0,"time_elapsed":4363,"internal_node_id":"0.0-0.0","responseType":"finish","participantID":"eagvf8zez4j6mdz46vnfc4muvb1axepe","conditionNumber":"hint"},{"trial_type":"call-function","trial_index":1,"time_elapsed":4368,"internal_node_id":"0.0-1.0","responseType":"finish","participantID":"eagvf8zez4j6mdz46vnfc4muvb1axepe","conditionNumber":"hint"},{"rt":5629,"stimulus":"\u003ch1 id=\"welcome\"\u003eWelcome\u003c/h1\u003e\n\u003cp\u003eWelcome to the Experiment! In this experiment, we will give you one \u003cem\u003eanagram\u003c/em\u003e to solve. An \u003cem\u003eanagram\u003c/em\u003e is simply a word or phrase formed by rearranging the letters of another word or phrase. For example:\u003c/p\u003e\n\u003cul\u003e\n\u003cli\u003e\u003cstrong\u003ePOKER\u003c/strong\u003e is an anagram of \u003cstrong\u003ePKOER\u003c/strong\u003e\u003c/li\u003e\n\u003cli\u003e\u003cstrong\u003ePHONE\u003c/strong\u003e is an anagram of \u003cstrong\u003ePOEHN\u003c/strong\u003e\u003c/li\u003e\n\u003c/ul\u003e\n\u003cp\u003eWe kindly request for your full attention for the experiment and ask you to refrain from using Google or other search engines. \u003c/p\u003e\n\u003cp\u003ePlease press the \u003cstrong\u003e'n' key\u003c/strong\u003e to continue once you understand.\u003c/p\u003e","key_press":78,"trial_type":"html-keyboard-response","trial_index":2,"time_elapsed":9999,"internal_node_id":"0.0-2.0","responseType":"finish","participantID":"eagvf8zez4j6mdz46vnfc4muvb1axepe","conditionNumber":"hint"},{"rt":14698,"stimulus":"\u003ch1 id=\"instructions\"\u003eInstructions\u003c/h1\u003e\n\u003cp\u003eWhen you click next, you will be presented with an anagram that will be displayed for 4 seconds. Following that, the \u003cem\u003esame\u003c/em\u003e anagram will be presented to you again in a \u003cem\u003edifferent\u003c/em\u003e configuration for 4 seconds. \u003c/p\u003e\n\u003cp\u003eIn total, we will present the anagram to you in \u003cstrong\u003ethree\u003c/strong\u003e different configurations. If you have not figured the answer to the anagram by then, then we will show a much \u003cstrong\u003eeasier\u003c/strong\u003e configuration of that anagram to you. \u003c/p\u003e\n\u003cp\u003eAs an example, you may be presented with random configurations such as: \u003cstrong\u003eONLEM\u003c/strong\u003e, \u003cstrong\u003eMOELN\u003c/strong\u003e, \u003cstrong\u003eNMEOL\u003c/strong\u003e, and finally the easier configuration, \u003cstrong\u003eLMEON\u003c/strong\u003e. Here, these configurations come from the same anagram, LEMON and your goal was figuring out the underlying anagram. \u003c/p\u003e\n\u003cp\u003ePlease press the \u003cstrong\u003e'm' key\u003c/strong\u003e to continue once you understand.\u003c/p\u003e","key_press":77,"trial_type":"html-keyboard-response","trial_index":3,"time_elapsed":24702,"internal_node_id":"0.0-3.0","responseType":"finish","participantID":"eagvf8zez4j6mdz46vnfc4muvb1axepe","conditionNumber":"hint"},{"rt":7243,"stimulus":"\u003ch1 id=\"instructions\"\u003eInstructions\u003c/h1\u003e\n\u003cp\u003eNow, we will present you the anagram which you have to solve. We will present the anagram to you in \u003cstrong\u003ethree\u003c/strong\u003e different configurations. If you have not figured the answer to the anagram by then, then we will show a much \u003cstrong\u003eeasier\u003c/strong\u003e configuration to you. \u003c/p\u003e\n\u003cp\u003ePlease press the \u003cstrong\u003e'b' key\u003c/strong\u003e to continue.\u003c/p\u003e","key_press":66,"trial_type":"html-keyboard-response","trial_index":4,"time_elapsed":31946,"internal_node_id":"0.0-4.0","responseType":"finish","participantID":"eagvf8zez4j6mdz46vnfc4muvb1axepe","conditionNumber":"hint"},{"rt":null,"stimulus":"\u003cp\u003e\u003ch1\u003eOCRAIGN\u003c/h1\u003e\u003c/p\u003e","key_press":null,"trial_type":"html-keyboard-response","trial_index":5,"time_elapsed":35948,"internal_node_id":"0.0-5.0-0.0","responseType":"finish","participantID":"eagvf8zez4j6mdz46vnfc4muvb1axepe","conditionNumber":"hint"},{"rt":3920,"responses":"{\"Q0\":0}","trial_type":"survey-likert","trial_index":6,"time_elapsed":39870,"internal_node_id":"0.0-5.0-1.0","responseType":"finish","participantID":"eagvf8zez4j6mdz46vnfc4muvb1axepe","conditionNumber":"hint"},{"rt":null,"stimulus":"\u003cp\u003eNow we will show you another configuration of the anagram\u003c/p\u003e","key_press":null,"trial_type":"html-keyboard-response","trial_index":7,"time_elapsed":45874,"internal_node_id":"0.0-5.0-2.0","responseType":"finish","participantID":"eagvf8zez4j6mdz46vnfc4muvb1axepe","conditionNumber":"hint"},{"rt":null,"stimulus":"\u003cp\u003e\u003ch1\u003eCROAIGN\u003c/h1\u003e\u003c/p\u003e","key_press":null,"trial_type":"html-keyboard-response","trial_index":8,"time_elapsed":49880,"internal_node_id":"0.0-5.1-0.1","responseType":"finish","participantID":"eagvf8zez4j6mdz46vnfc4muvb1axepe","conditionNumber":"hint"},{"rt":2429,"responses":"{\"Q0\":0}","trial_type":"survey-likert","trial_index":9,"time_elapsed":52310,"internal_node_id":"0.0-5.1-1.1","responseType":"finish","participantID":"eagvf8zez4j6mdz46vnfc4muvb1axepe","conditionNumber":"hint"},{"rt":null,"stimulus":"\u003cp\u003eNow we will show you another configuration of the anagram\u003c/p\u003e","key_press":null,"trial_type":"html-keyboard-response","trial_index":10,"time_elapsed":58311,"internal_node_id":"0.0-5.1-2.1","responseType":"finish","participantID":"eagvf8zez4j6mdz46vnfc4muvb1axepe","conditionNumber":"hint"},{"rt":null,"stimulus":"\u003cp\u003e\u003ch1\u003eNACGIOR\u003c/h1\u003e\u003c/p\u003e","key_press":null,"trial_type":"html-keyboard-response","trial_index":11,"time_elapsed":62312,"internal_node_id":"0.0-5.2-0.2","responseType":"finish","participantID":"eagvf8zez4j6mdz46vnfc4muvb1axepe","conditionNumber":"hint"},{"rt":2136,"responses":"{\"Q0\":0}","trial_type":"survey-likert","trial_index":12,"time_elapsed":64449,"internal_node_id":"0.0-5.2-1.2","responseType":"finish","participantID":"eagvf8zez4j6mdz46vnfc4muvb1axepe","conditionNumber":"hint"},{"rt":null,"stimulus":"\u003cp\u003eWe will now show you a much \u003cb\u003eeasier\u003c/b\u003e configuration of this anagram\u003c/p\u003e","key_press":null,"trial_type":"html-keyboard-response","trial_index":13,"time_elapsed":70452,"internal_node_id":"0.0-5.2-2.2","responseType":"finish","participantID":"eagvf8zez4j6mdz46vnfc4muvb1axepe","conditionNumber":"hint"},{"rt":null,"stimulus":"\u003cp\u003e\u003ch1\u003eORAGNIC\u003c/h1\u003e\u003c/p\u003e","key_press":null,"trial_type":"html-keyboard-response","trial_index":14,"time_elapsed":74456,"internal_node_id":"0.0-5.3-0.3","responseType":"finish","participantID":"eagvf8zez4j6mdz46vnfc4muvb1axepe","conditionNumber":"hint"},{"rt":2010,"responses":"{\"Q0\":9}","trial_type":"survey-likert","trial_index":15,"time_elapsed":76467,"internal_node_id":"0.0-5.3-1.3","responseType":"finish","participantID":"eagvf8zez4j6mdz46vnfc4muvb1axepe","conditionNumber":"hint"},{"rt":null,"stimulus":"\u003cp\u003eNow we will show you another configuration of the anagram\u003c/p\u003e","key_press":null,"trial_type":"html-keyboard-response","trial_index":16,"time_elapsed":76469,"internal_node_id":"0.0-5.3-2.3","responseType":"finish","participantID":"eagvf8zez4j6mdz46vnfc4muvb1axepe","conditionNumber":"hint"},{"rt":3942,"responses":"{\"Q0\":9}","trial_type":"survey-likert","trial_index":17,"time_elapsed":80413,"internal_node_id":"0.0-6.0","responseType":"finish","participantID":"eagvf8zez4j6mdz46vnfc4muvb1axepe","conditionNumber":"hint"}],"__v":0}
{"_id":{"$oid":"5d66e91415e625000487c680"},"data":{"responseType":"start","participantID":"voyf72kgg45bqt3fymdh9f63x5t3aw5w","conditionNumber":"hint"},"__v":0}
{"_id":{"$oid":"5d66e92315e625000487c681"},"data":{"responseType":"start","participantID":"xs0k3nz33kmzvx4olllr5tmr2wnpnjcq","conditionNumber":"none"},"__v":0}
{"_id":{"$oid":"5d66e94215e625000487c682"},"data":{"responseType":"start","participantID":"k3w4wqayv7qm6yv15j0850lla9cggvmx","conditionNumber":"none"},"__v":0}
{"_id":{"$oid":"5d66e96015e625000487c683"},"data":[{"rt":5891,"responses":"{\"Q0\":\" I consent to participate \"}","trial_type":"survey-multi-choice","trial_index":0,"time_elapsed":5899,"internal_node_id":"0.0-0.0","responseType":"finish","participantID":"vlf3cm38y5w8s17erc2spkaj3v2ekjy3","conditionNumber":"none"},{"trial_type":"call-function","trial_index":1,"time_elapsed":5906,"internal_node_id":"0.0-1.0","responseType":"finish","participantID":"vlf3cm38y5w8s17erc2spkaj3v2ekjy3","conditionNumber":"none"},{"rt":16110,"stimulus":"\u003ch1 id=\"welcome\"\u003eWelcome\u003c/h1\u003e\n\u003cp\u003eWelcome to the Experiment! In this experiment, we will give you one \u003cem\u003eanagram\u003c/em\u003e to solve. An \u003cem\u003eanagram\u003c/em\u003e is simply a word or phrase formed by rearranging the letters of another word or phrase. For example:\u003c/p\u003e\n\u003cul\u003e\n\u003cli\u003e\u003cstrong\u003ePOKER\u003c/strong\u003e is an anagram of \u003cstrong\u003ePKOER\u003c/strong\u003e\u003c/li\u003e\n\u003cli\u003e\u003cstrong\u003ePHONE\u003c/strong\u003e is an anagram of \u003cstrong\u003ePOEHN\u003c/strong\u003e\u003c/li\u003e\n\u003c/ul\u003e\n\u003cp\u003eWe kindly request for your full attention for the experiment and ask you to refrain from using Google or other search engines. \u003c/p\u003e\n\u003cp\u003ePlease press the \u003cstrong\u003e'n' key\u003c/strong\u003e to continue once you understand.\u003c/p\u003e","key_press":78,"trial_type":"html-keyboard-response","trial_index":2,"time_elapsed":22018,"internal_node_id":"0.0-2.0","responseType":"finish","participantID":"vlf3cm38y5w8s17erc2spkaj3v2ekjy3","conditionNumber":"none"},{"rt":21005,"stimulus":"\u003ch1 id=\"instructions\"\u003eInstructions\u003c/h1\u003e\n\u003cp\u003eWhen you click next, you will be presented with an anagram that will be displayed for 4 seconds. Following that, the \u003cem\u003esame\u003c/em\u003e anagram will be presented to you again in a \u003cem\u003edifferent\u003c/em\u003e configuration for 4 seconds. This will be repeated multiple times and your goal is to solve the anagram by the end of the experiment. \u003c/p\u003e\n\u003cp\u003eAs an example, you may be presented with random configurations such as: \u003cstrong\u003eONLEM\u003c/strong\u003e, \u003cstrong\u003eMOELN\u003c/strong\u003e, and \u003cstrong\u003eNMEOL\u003c/strong\u003e. Here, these configurations come from the same anagram, LEMON and your goal was figuring out the underlying anagram. \u003c/p\u003e\n\u003cp\u003ePlease press the \u003cstrong\u003e'm' key\u003c/strong\u003e to continue once you understand.\u003c/p\u003e","key_press":77,"trial_type":"html-keyboard-response","trial_index":3,"time_elapsed":43030,"internal_node_id":"0.0-3.0","responseType":"finish","participantID":"vlf3cm38y5w8s17erc2spkaj3v2ekjy3","conditionNumber":"none"},{"rt":7314,"stimulus":"\u003ch1 id=\"instructions\"\u003eInstructions\u003c/h1\u003e\n\u003cp\u003eNow, we will present you the anagram which you have to solve. We will present the anagram to you in various different configurations. Please try your best to solve the anagram. \u003c/p\u003e\n\u003cp\u003ePlease press the \u003cstrong\u003e'b' key\u003c/strong\u003e to continue.\u003c/p\u003e","key_press":66,"trial_type":"html-keyboard-response","trial_index":4,"time_elapsed":50346,"internal_node_id":"0.0-4.0","responseType":"finish","participantID":"vlf3cm38y5w8s17erc2spkaj3v2ekjy3","conditionNumber":"none"},{"rt":null,"stimulus":"\u003cp\u003e\u003ch1\u003eOCRAIGN\u003c/h1\u003e\u003c/p\u003e","key_press":null,"trial_type":"html-keyboard-response","trial_index":5,"time_elapsed":54348,"internal_node_id":"0.0-5.0-0.0","responseType":"finish","participantID":"vlf3cm38y5w8s17erc2spkaj3v2ekjy3","conditionNumber":"none"},{"rt":5960,"responses":"{\"Q0\":1}","trial_type":"survey-likert","trial_index":6,"time_elapsed":60315,"internal_node_id":"0.0-5.0-1.0","responseType":"finish","participantID":"vlf3cm38y5w8s17erc2spkaj3v2ekjy3","conditionNumber":"none"},{"rt":null,"stimulus":"\u003cp\u003eNow we will show you another configuration of the anagram\u003c/p\u003e","key_press":null,"trial_type":"html-keyboard-response","trial_index":7,"time_elapsed":66317,"internal_node_id":"0.0-5.0-2.0","responseType":"finish","participantID":"vlf3cm38y5w8s17erc2spkaj3v2ekjy3","conditionNumber":"none"},{"rt":null,"stimulus":"\u003cp\u003e\u003ch1\u003eCROAIGN\u003c/h1\u003e\u003c/p\u003e","key_press":null,"trial_type":"html-keyboard-response","trial_index":8,"time_elapsed":70319,"internal_node_id":"0.0-5.1-0.1","responseType":"finish","participantID":"vlf3cm38y5w8s17erc2spkaj3v2ekjy3","conditionNumber":"none"},{"rt":2350,"responses":"{\"Q0\":1}","trial_type":"survey-likert","trial_index":9,"time_elapsed":72675,"internal_node_id":"0.0-5.1-1.1","responseType":"finish","participantID":"vlf3cm38y5w8s17erc2spkaj3v2ekjy3","conditionNumber":"none"},{"rt":null,"stimulus":"\u003cp\u003eNow we will show you another configuration of the anagram\u003c/p\u003e","key_press":null,"trial_type":"html-keyboard-response","trial_index":10,"time_elapsed":78677,"internal_node_id":"0.0-5.1-2.1","responseType":"finish","participantID":"vlf3cm38y5w8s17erc2spkaj3v2ekjy3","conditionNumber":"none"},{"rt":null,"stimulus":"\u003cp\u003e\u003ch1\u003eNACGIOR\u003c/h1\u003e\u003c/p\u003e","key_press":null,"trial_type":"html-keyboard-response","trial_index":11,"time_elapsed":82679,"internal_node_id":"0.0-5.2-0.2","responseType":"finish","participantID":"vlf3cm38y5w8s17erc2spkaj3v2ekjy3","conditionNumber":"none"},{"rt":2601,"responses":"{\"Q0\":1}","trial_type":"survey-likert","trial_index":12,"time_elapsed":85283,"internal_node_id":"0.0-5.2-1.2","responseType":"finish","participantID":"vlf3cm38y5w8s17erc2spkaj3v2ekjy3","conditionNumber":"none"},{"rt":null,"stimulus":"\u003cp\u003eNow we will show you another configuration of the anagram\u003c/p\u003e","key_press":null,"trial_type":"html-keyboard-response","trial_index":13,"time_elapsed":91286,"internal_node_id":"0.0-5.2-2.2","responseType":"finish","participantID":"vlf3cm38y5w8s17erc2spkaj3v2ekjy3","conditionNumber":"none"},{"rt":null,"stimulus":"\u003cp\u003e\u003ch1\u003eORAGNIC\u003c/h1\u003e\u003c/p\u003e","key_press":null,"trial_type":"html-keyboard-response","trial_index":14,"time_elapsed":95288,"internal_node_id":"0.0-5.3-0.3","responseType":"finish","participantID":"vlf3cm38y5w8s17erc2spkaj3v2ekjy3","conditionNumber":"none"},{"rt":3081,"responses":"{\"Q0\":8}","trial_type":"survey-likert","trial_index":15,"time_elapsed":98373,"internal_node_id":"0.0-5.3-1.3","responseType":"finish","participantID":"vlf3cm38y5w8s17erc2spkaj3v2ekjy3","conditionNumber":"none"},{"rt":null,"stimulus":"\u003cp\u003eNow we will show you another configuration of the anagram\u003c/p\u003e","key_press":null,"trial_type":"html-keyboard-response","trial_index":16,"time_elapsed":98377,"internal_node_id":"0.0-5.3-2.3","responseType":"finish","participantID":"vlf3cm38y5w8s17erc2spkaj3v2ekjy3","conditionNumber":"none"},{"rt":4839,"responses":"{\"Q0\":9}","trial_type":"survey-likert","trial_index":17,"time_elapsed":103218,"internal_node_id":"0.0-6.0","responseType":"finish","participantID":"vlf3cm38y5w8s17erc2spkaj3v2ekjy3","conditionNumber":"none"}],"__v":0}
{"_id":{"$oid":"5d66e96615e625000487c684"},"data":[{"rt":7955,"responses":"{\"Q0\":\" I consent to participate \"}","trial_type":"survey-multi-choice","trial_index":0,"time_elapsed":7971,"internal_node_id":"0.0-0.0","responseType":"finish","participantID":"voyf72kgg45bqt3fymdh9f63x5t3aw5w","conditionNumber":"hint"},{"trial_type":"call-function","trial_index":1,"time_elapsed":7982,"internal_node_id":"0.0-1.0","responseType":"finish","participantID":"voyf72kgg45bqt3fymdh9f63x5t3aw5w","conditionNumber":"hint"},{"rt":14546,"stimulus":"\u003ch1 id=\"welcome\"\u003eWelcome\u003c/h1\u003e\n\u003cp\u003eWelcome to the Experiment! In this experiment, we will give you one \u003cem\u003eanagram\u003c/em\u003e to solve. An \u003cem\u003eanagram\u003c/em\u003e is simply a word or phrase formed by rearranging the letters of another word or phrase. For example:\u003c/p\u003e\n\u003cul\u003e\n\u003cli\u003e\u003cstrong\u003ePOKER\u003c/strong\u003e is an anagram of \u003cstrong\u003ePKOER\u003c/strong\u003e\u003c/li\u003e\n\u003cli\u003e\u003cstrong\u003ePHONE\u003c/strong\u003e is an anagram of \u003cstrong\u003ePOEHN\u003c/strong\u003e\u003c/li\u003e\n\u003c/ul\u003e\n\u003cp\u003eWe kindly request for your full attention for the experiment and ask you to refrain from using Google or other search engines. \u003c/p\u003e\n\u003cp\u003ePlease press the \u003cstrong\u003e'n' key\u003c/strong\u003e to continue once you understand.\u003c/p\u003e","key_press":78,"trial_type":"html-keyboard-response","trial_index":2,"time_elapsed":22533,"internal_node_id":"0.0-2.0","responseType":"finish","participantID":"voyf72kgg45bqt3fymdh9f63x5t3aw5w","conditionNumber":"hint"},{"rt":15518,"stimulus":"\u003ch1 id=\"instructions\"\u003eInstructions\u003c/h1\u003e\n\u003cp\u003eWhen you click next, you will be presented with an anagram that will be displayed for 4 seconds. Following that, the \u003cem\u003esame\u003c/em\u003e anagram will be presented to you again in a \u003cem\u003edifferent\u003c/em\u003e configuration for 4 seconds. \u003c/p\u003e\n\u003cp\u003eIn total, we will present the anagram to you in \u003cstrong\u003ethree\u003c/strong\u003e different configurations. If you have not figured the answer to the anagram by then, then we will show a much \u003cstrong\u003eeasier\u003c/strong\u003e configuration of that anagram to you. \u003c/p\u003e\n\u003cp\u003eAs an example, you may be presented with random configurations such as: \u003cstrong\u003eONLEM\u003c/strong\u003e, \u003cstrong\u003eMOELN\u003c/strong\u003e, \u003cstrong\u003eNMEOL\u003c/strong\u003e, and finally the easier configuration, \u003cstrong\u003eLMEON\u003c/strong\u003e. Here, these configurations come from the same anagram, LEMON and your goal was figuring out the underlying anagram. \u003c/p\u003e\n\u003cp\u003ePlease press the \u003cstrong\u003e'm' key\u003c/strong\u003e to continue once you understand.\u003c/p\u003e","key_press":77,"trial_type":"html-keyboard-response","trial_index":3,"time_elapsed":38063,"internal_node_id":"0.0-3.0","responseType":"finish","participantID":"voyf72kgg45bqt3fymdh9f63x5t3aw5w","conditionNumber":"hint"},{"rt":4350,"stimulus":"\u003ch1 id=\"instructions\"\u003eInstructions\u003c/h1\u003e\n\u003cp\u003eNow, we will present you the anagram which you have to solve. We will present the anagram to you in \u003cstrong\u003ethree\u003c/strong\u003e different configurations. If you have not figured the answer to the anagram by then, then we will show a much \u003cstrong\u003eeasier\u003c/strong\u003e configuration to you. \u003c/p\u003e\n\u003cp\u003ePlease press the \u003cstrong\u003e'b' key\u003c/strong\u003e to continue.\u003c/p\u003e","key_press":66,"trial_type":"html-keyboard-response","trial_index":4,"time_elapsed":42415,"internal_node_id":"0.0-4.0","responseType":"finish","participantID":"voyf72kgg45bqt3fymdh9f63x5t3aw5w","conditionNumber":"hint"},{"rt":null,"stimulus":"\u003cp\u003e\u003ch1\u003eOCRAIGN\u003c/h1\u003e\u003c/p\u003e","key_press":null,"trial_type":"html-keyboard-response","trial_index":5,"time_elapsed":46418,"internal_node_id":"0.0-5.0-0.0","responseType":"finish","participantID":"voyf72kgg45bqt3fymdh9f63x5t3aw5w","conditionNumber":"hint"},{"rt":3965,"responses":"{\"Q0\":1}","trial_type":"survey-likert","trial_index":6,"time_elapsed":50388,"internal_node_id":"0.0-5.0-1.0","responseType":"finish","participantID":"voyf72kgg45bqt3fymdh9f63x5t3aw5w","conditionNumber":"hint"},{"rt":null,"stimulus":"\u003cp\u003eNow we will show you another configuration of the anagram\u003c/p\u003e","key_press":null,"trial_type":"html-keyboard-response","trial_index":7,"time_elapsed":56392,"internal_node_id":"0.0-5.0-2.0","responseType":"finish","participantID":"voyf72kgg45bqt3fymdh9f63x5t3aw5w","conditionNumber":"hint"},{"rt":null,"stimulus":"\u003cp\u003e\u003ch1\u003eCROAIGN\u003c/h1\u003e\u003c/p\u003e","key_press":null,"trial_type":"html-keyboard-response","trial_index":8,"time_elapsed":60396,"internal_node_id":"0.0-5.1-0.1","responseType":"finish","participantID":"voyf72kgg45bqt3fymdh9f63x5t3aw5w","conditionNumber":"hint"},{"rt":2044,"responses":"{\"Q0\":1}","trial_type":"survey-likert","trial_index":9,"time_elapsed":62442,"internal_node_id":"0.0-5.1-1.1","responseType":"finish","participantID":"voyf72kgg45bqt3fymdh9f63x5t3aw5w","conditionNumber":"hint"},{"rt":null,"stimulus":"\u003cp\u003eNow we will show you another configuration of the anagram\u003c/p\u003e","key_press":null,"trial_type":"html-keyboard-response","trial_index":10,"time_elapsed":68445,"internal_node_id":"0.0-5.1-2.1","responseType":"finish","participantID":"voyf72kgg45bqt3fymdh9f63x5t3aw5w","conditionNumber":"hint"},{"rt":null,"stimulus":"\u003cp\u003e\u003ch1\u003eNACGIOR\u003c/h1\u003e\u003c/p\u003e","key_press":null,"trial_type":"html-keyboard-response","trial_index":11,"time_elapsed":72448,"internal_node_id":"0.0-5.2-0.2","responseType":"finish","participantID":"voyf72kgg45bqt3fymdh9f63x5t3aw5w","conditionNumber":"hint"},{"rt":1796,"responses":"{\"Q0\":1}","trial_type":"survey-likert","trial_index":12,"time_elapsed":74247,"internal_node_id":"0.0-5.2-1.2","responseType":"finish","participantID":"voyf72kgg45bqt3fymdh9f63x5t3aw5w","conditionNumber":"hint"},{"rt":null,"stimulus":"\u003cp\u003eWe will now show you a much \u003cb\u003eeasier\u003c/b\u003e configuration of this anagram\u003c/p\u003e","key_press":null,"trial_type":"html-keyboard-response","trial_index":13,"time_elapsed":80250,"internal_node_id":"0.0-5.2-2.2","responseType":"finish","participantID":"voyf72kgg45bqt3fymdh9f63x5t3aw5w","conditionNumber":"hint"},{"rt":null,"stimulus":"\u003cp\u003e\u003ch1\u003eORAGNIC\u003c/h1\u003e\u003c/p\u003e","key_press":null,"trial_type":"html-keyboard-response","trial_index":14,"time_elapsed":84253,"internal_node_id":"0.0-5.3-0.3","responseType":"finish","participantID":"voyf72kgg45bqt3fymdh9f63x5t3aw5w","conditionNumber":"hint"},{"rt":2509,"responses":"{\"Q0\":9}","trial_type":"survey-likert","trial_index":15,"time_elapsed":86764,"internal_node_id":"0.0-5.3-1.3","responseType":"finish","participantID":"voyf72kgg45bqt3fymdh9f63x5t3aw5w","conditionNumber":"hint"},{"rt":null,"stimulus":"\u003cp\u003eNow we will show you another configuration of the anagram\u003c/p\u003e","key_press":null,"trial_type":"html-keyboard-response","trial_index":16,"time_elapsed":86769,"internal_node_id":"0.0-5.3-2.3","responseType":"finish","participantID":"voyf72kgg45bqt3fymdh9f63x5t3aw5w","conditionNumber":"hint"},{"rt":3667,"responses":"{\"Q0\":8}","trial_type":"survey-likert","trial_index":17,"time_elapsed":90438,"internal_node_id":"0.0-6.0","responseType":"finish","participantID":"voyf72kgg45bqt3fymdh9f63x5t3aw5w","conditionNumber":"hint"}],"__v":0}
{"_id":{"$oid":"5d66e98a15e625000487c685"},"data":[{"rt":3179,"responses":"{\"Q0\":\" I consent to participate \"}","trial_type":"survey-multi-choice","trial_index":0,"time_elapsed":3184,"internal_node_id":"0.0-0.0","responseType":"finish","participantID":"xs0k3nz33kmzvx4olllr5tmr2wnpnjcq","conditionNumber":"none"},{"trial_type":"call-function","trial_index":1,"time_elapsed":3186,"internal_node_id":"0.0-1.0","responseType":"finish","participantID":"xs0k3nz33kmzvx4olllr5tmr2wnpnjcq","conditionNumber":"none"},{"rt":14572,"stimulus":"\u003ch1 id=\"welcome\"\u003eWelcome\u003c/h1\u003e\n\u003cp\u003eWelcome to the Experiment! In this experiment, we will give you one \u003cem\u003eanagram\u003c/em\u003e to solve. An \u003cem\u003eanagram\u003c/em\u003e is simply a word or phrase formed by rearranging the letters of another word or phrase. For example:\u003c/p\u003e\n\u003cul\u003e\n\u003cli\u003e\u003cstrong\u003ePOKER\u003c/strong\u003e is an anagram of \u003cstrong\u003ePKOER\u003c/strong\u003e\u003c/li\u003e\n\u003cli\u003e\u003cstrong\u003ePHONE\u003c/strong\u003e is an anagram of \u003cstrong\u003ePOEHN\u003c/strong\u003e\u003c/li\u003e\n\u003c/ul\u003e\n\u003cp\u003eWe kindly request for your full attention for the experiment and ask you to refrain from using Google or other search engines. \u003c/p\u003e\n\u003cp\u003ePlease press the \u003cstrong\u003e'n' key\u003c/strong\u003e to continue once you understand.\u003c/p\u003e","key_press":78,"trial_type":"html-keyboard-response","trial_index":2,"time_elapsed":17759,"internal_node_id":"0.0-2.0","responseType":"finish","participantID":"xs0k3nz33kmzvx4olllr5tmr2wnpnjcq","conditionNumber":"none"},{"rt":15410,"stimulus":"\u003ch1 id=\"instructions\"\u003eInstructions\u003c/h1\u003e\n\u003cp\u003eWhen you click next, you will be presented with an anagram that will be displayed for 4 seconds. Following that, the \u003cem\u003esame\u003c/em\u003e anagram will be presented to you again in a \u003cem\u003edifferent\u003c/em\u003e configuration for 4 seconds. This will be repeated multiple times and your goal is to solve the anagram by the end of the experiment. \u003c/p\u003e\n\u003cp\u003eAs an example, you may be presented with random configurations such as: \u003cstrong\u003eONLEM\u003c/strong\u003e, \u003cstrong\u003eMOELN\u003c/strong\u003e, and \u003cstrong\u003eNMEOL\u003c/strong\u003e. Here, these configurations come from the same anagram, LEMON and your goal was figuring out the underlying anagram. \u003c/p\u003e\n\u003cp\u003ePlease press the \u003cstrong\u003e'm' key\u003c/strong\u003e to continue once you understand.\u003c/p\u003e","key_press":77,"trial_type":"html-keyboard-response","trial_index":3,"time_elapsed":33174,"internal_node_id":"0.0-3.0","responseType":"finish","participantID":"xs0k3nz33kmzvx4olllr5tmr2wnpnjcq","conditionNumber":"none"},{"rt":4054,"stimulus":"\u003ch1 id=\"instructions\"\u003eInstructions\u003c/h1\u003e\n\u003cp\u003eNow, we will present you the anagram which you have to solve. We will present the anagram to you in various different configurations. Please try your best to solve the anagram. \u003c/p\u003e\n\u003cp\u003ePlease press the \u003cstrong\u003e'b' key\u003c/strong\u003e to continue.\u003c/p\u003e","key_press":66,"trial_type":"html-keyboard-response","trial_index":4,"time_elapsed":37230,"internal_node_id":"0.0-4.0","responseType":"finish","participantID":"xs0k3nz33kmzvx4olllr5tmr2wnpnjcq","conditionNumber":"none"},{"rt":null,"stimulus":"\u003cp\u003e\u003ch1\u003eOCRAIGN\u003c/h1\u003e\u003c/p\u003e","key_press":null,"trial_type":"html-keyboard-response","trial_index":5,"time_elapsed":41232,"internal_node_id":"0.0-5.0-0.0","responseType":"finish","participantID":"xs0k3nz33kmzvx4olllr5tmr2wnpnjcq","conditionNumber":"none"},{"rt":5947,"responses":"{\"Q0\":1}","trial_type":"survey-likert","trial_index":6,"time_elapsed":47181,"internal_node_id":"0.0-5.0-1.0","responseType":"finish","participantID":"xs0k3nz33kmzvx4olllr5tmr2wnpnjcq","conditionNumber":"none"},{"rt":null,"stimulus":"\u003cp\u003eNow we will show you another configuration of the anagram\u003c/p\u003e","key_press":null,"trial_type":"html-keyboard-response","trial_index":7,"time_elapsed":53182,"internal_node_id":"0.0-5.0-2.0","responseType":"finish","participantID":"xs0k3nz33kmzvx4olllr5tmr2wnpnjcq","conditionNumber":"none"},{"rt":null,"stimulus":"\u003cp\u003e\u003ch1\u003eCROAIGN\u003c/h1\u003e\u003c/p\u003e","key_press":null,"trial_type":"html-keyboard-response","trial_index":8,"time_elapsed":57183,"internal_node_id":"0.0-5.1-0.1","responseType":"finish","participantID":"xs0k3nz33kmzvx4olllr5tmr2wnpnjcq","conditionNumber":"none"},{"rt":3872,"responses":"{\"Q0\":2}","trial_type":"survey-likert","trial_index":9,"time_elapsed":61055,"internal_node_id":"0.0-5.1-1.1","responseType":"finish","participantID":"xs0k3nz33kmzvx4olllr5tmr2wnpnjcq","conditionNumber":"none"},{"rt":null,"stimulus":"\u003cp\u003eNow we will show you another configuration of the anagram\u003c/p\u003e","key_press":null,"trial_type":"html-keyboard-response","trial_index":10,"time_elapsed":67057,"internal_node_id":"0.0-5.1-2.1","responseType":"finish","participantID":"xs0k3nz33kmzvx4olllr5tmr2wnpnjcq","conditionNumber":"none"},{"rt":null,"stimulus":"\u003cp\u003e\u003ch1\u003eNACGIOR\u003c/h1\u003e\u003c/p\u003e","key_press":null,"trial_type":"html-keyboard-response","trial_index":11,"time_elapsed":71058,"internal_node_id":"0.0-5.2-0.2","responseType":"finish","participantID":"xs0k3nz33kmzvx4olllr5tmr2wnpnjcq","conditionNumber":"none"},{"rt":17482,"responses":"{\"Q0\":1}","trial_type":"survey-likert","trial_index":12,"time_elapsed":88540,"internal_node_id":"0.0-5.2-1.2","responseType":"finish","participantID":"xs0k3nz33kmzvx4olllr5tmr2wnpnjcq","conditionNumber":"none"},{"rt":null,"stimulus":"\u003cp\u003eNow we will show you another configuration of the anagram\u003c/p\u003e","key_press":null,"trial_type":"html-keyboard-response","trial_index":13,"time_elapsed":94541,"internal_node_id":"0.0-5.2-2.2","responseType":"finish","participantID":"xs0k3nz33kmzvx4olllr5tmr2wnpnjcq","conditionNumber":"none"},{"rt":null,"stimulus":"\u003cp\u003e\u003ch1\u003eORAGNIC\u003c/h1\u003e\u003c/p\u003e","key_press":null,"trial_type":"html-keyboard-response","trial_index":14,"time_elapsed":98542,"internal_node_id":"0.0-5.3-0.3","responseType":"finish","participantID":"xs0k3nz33kmzvx4olllr5tmr2wnpnjcq","conditionNumber":"none"},{"rt":2494,"responses":"{\"Q0\":9}","trial_type":"survey-likert","trial_index":15,"time_elapsed":101039,"internal_node_id":"0.0-5.3-1.3","responseType":"finish","participantID":"xs0k3nz33kmzvx4olllr5tmr2wnpnjcq","conditionNumber":"none"},{"rt":null,"stimulus":"\u003cp\u003eNow we will show you another configuration of the anagram\u003c/p\u003e","key_press":null,"trial_type":"html-keyboard-response","trial_index":16,"time_elapsed":101040,"internal_node_id":"0.0-5.3-2.3","responseType":"finish","participantID":"xs0k3nz33kmzvx4olllr5tmr2wnpnjcq","conditionNumber":"none"},{"rt":5136,"responses":"{\"Q0\":9}","trial_type":"survey-likert","trial_index":17,"time_elapsed":106178,"internal_node_id":"0.0-6.0","responseType":"finish","participantID":"xs0k3nz33kmzvx4olllr5tmr2wnpnjcq","conditionNumber":"none"}],"__v":0}
{"_id":{"$oid":"5d66e98f15e625000487c686"},"data":[{"rt":221183,"responses":"{\"Q0\":\" I consent to participate \"}","trial_type":"survey-multi-choice","trial_index":0,"time_elapsed":221187,"internal_node_id":"0.0-0.0","responseType":"finish","participantID":"k3w4wqayv7qm6yv15j0850lla9cggvmx","conditionNumber":"none"},{"trial_type":"call-function","trial_index":1,"time_elapsed":221190,"internal_node_id":"0.0-1.0","responseType":"finish","participantID":"k3w4wqayv7qm6yv15j0850lla9cggvmx","conditionNumber":"none"},{"rt":9319,"stimulus":"\u003ch1 id=\"welcome\"\u003eWelcome\u003c/h1\u003e\n\u003cp\u003eWelcome to the Experiment! In this experiment, we will give you one \u003cem\u003eanagram\u003c/em\u003e to solve. An \u003cem\u003eanagram\u003c/em\u003e is simply a word or phrase formed by rearranging the letters of another word or phrase. For example:\u003c/p\u003e\n\u003cul\u003e\n\u003cli\u003e\u003cstrong\u003ePOKER\u003c/strong\u003e is an anagram of \u003cstrong\u003ePKOER\u003c/strong\u003e\u003c/li\u003e\n\u003cli\u003e\u003cstrong\u003ePHONE\u003c/strong\u003e is an anagram of \u003cstrong\u003ePOEHN\u003c/strong\u003e\u003c/li\u003e\n\u003c/ul\u003e\n\u003cp\u003eWe kindly request for your full attention for the experiment and ask you to refrain from using Google or other search engines. \u003c/p\u003e\n\u003cp\u003ePlease press the \u003cstrong\u003e'n' key\u003c/strong\u003e to continue once you understand.\u003c/p\u003e","key_press":78,"trial_type":"html-keyboard-response","trial_index":2,"time_elapsed":230510,"internal_node_id":"0.0-2.0","responseType":"finish","participantID":"k3w4wqayv7qm6yv15j0850lla9cggvmx","conditionNumber":"none"},{"rt":12524,"stimulus":"\u003ch1 id=\"instructions\"\u003eInstructions\u003c/h1\u003e\n\u003cp\u003eWhen you click next, you will be presented with an anagram that will be displayed for 4 seconds. Following that, the \u003cem\u003esame\u003c/em\u003e anagram will be presented to you again in a \u003cem\u003edifferent\u003c/em\u003e configuration for 4 seconds. This will be repeated multiple times and your goal is to solve the anagram by the end of the experiment. \u003c/p\u003e\n\u003cp\u003eAs an example, you may be presented with random configurations such as: \u003cstrong\u003eONLEM\u003c/strong\u003e, \u003cstrong\u003eMOELN\u003c/strong\u003e, and \u003cstrong\u003eNMEOL\u003c/strong\u003e. Here, these configurations come from the same anagram, LEMON and your goal was figuring out the underlying anagram. \u003c/p\u003e\n\u003cp\u003ePlease press the \u003cstrong\u003e'm' key\u003c/strong\u003e to continue once you understand.\u003c/p\u003e","key_press":77,"trial_type":"html-keyboard-response","trial_index":3,"time_elapsed":243056,"internal_node_id":"0.0-3.0","responseType":"finish","participantID":"k3w4wqayv7qm6yv15j0850lla9cggvmx","conditionNumber":"none"},{"rt":4119,"stimulus":"\u003ch1 id=\"instructions\"\u003eInstructions\u003c/h1\u003e\n\u003cp\u003eNow, we will present you the anagram which you have to solve. We will present the anagram to you in various different configurations. Please try your best to solve the anagram. \u003c/p\u003e\n\u003cp\u003ePlease press the \u003cstrong\u003e'b' key\u003c/strong\u003e to continue.\u003c/p\u003e","key_press":66,"trial_type":"html-keyboard-response","trial_index":4,"time_elapsed":247176,"internal_node_id":"0.0-4.0","responseType":"finish","participantID":"k3w4wqayv7qm6yv15j0850lla9cggvmx","conditionNumber":"none"},{"rt":null,"stimulus":"\u003cp\u003e\u003ch1\u003eOCRAIGN\u003c/h1\u003e\u003c/p\u003e","key_press":null,"trial_type":"html-keyboard-response","trial_index":5,"time_elapsed":251178,"internal_node_id":"0.0-5.0-0.0","responseType":"finish","participantID":"k3w4wqayv7qm6yv15j0850lla9cggvmx","conditionNumber":"none"},{"rt":4546,"responses":"{\"Q0\":2}","trial_type":"survey-likert","trial_index":6,"time_elapsed":255725,"internal_node_id":"0.0-5.0-1.0","responseType":"finish","participantID":"k3w4wqayv7qm6yv15j0850lla9cggvmx","conditionNumber":"none"},{"rt":null,"stimulus":"\u003cp\u003eNow we will show you another configuration of the anagram\u003c/p\u003e","key_press":null,"trial_type":"html-keyboard-response","trial_index":7,"time_elapsed":261726,"internal_node_id":"0.0-5.0-2.0","responseType":"finish","participantID":"k3w4wqayv7qm6yv15j0850lla9cggvmx","conditionNumber":"none"},{"rt":null,"stimulus":"\u003cp\u003e\u003ch1\u003eCROAIGN\u003c/h1\u003e\u003c/p\u003e","key_press":null,"trial_type":"html-keyboard-response","trial_index":8,"time_elapsed":265730,"internal_node_id":"0.0-5.1-0.1","responseType":"finish","participantID":"k3w4wqayv7qm6yv15j0850lla9cggvmx","conditionNumber":"none"},{"rt":2901,"responses":"{\"Q0\":2}","trial_type":"survey-likert","trial_index":9,"time_elapsed":268634,"internal_node_id":"0.0-5.1-1.1","responseType":"finish","participantID":"k3w4wqayv7qm6yv15j0850lla9cggvmx","conditionNumber":"none"},{"rt":null,"stimulus":"\u003cp\u003eNow we will show you another configuration of the anagram\u003c/p\u003e","key_press":null,"trial_type":"html-keyboard-response","trial_index":10,"time_elapsed":274636,"internal_node_id":"0.0-5.1-2.1","responseType":"finish","participantID":"k3w4wqayv7qm6yv15j0850lla9cggvmx","conditionNumber":"none"},{"rt":null,"stimulus":"\u003cp\u003e\u003ch1\u003eNACGIOR\u003c/h1\u003e\u003c/p\u003e","key_press":null,"trial_type":"html-keyboard-response","trial_index":11,"time_elapsed":278638,"internal_node_id":"0.0-5.2-0.2","responseType":"finish","participantID":"k3w4wqayv7qm6yv15j0850lla9cggvmx","conditionNumber":"none"},{"rt":3357,"responses":"{\"Q0\":1}","trial_type":"survey-likert","trial_index":12,"time_elapsed":281996,"internal_node_id":"0.0-5.2-1.2","responseType":"finish","participantID":"k3w4wqayv7qm6yv15j0850lla9cggvmx","conditionNumber":"none"},{"rt":null,"stimulus":"\u003cp\u003eNow we will show you another configuration of the anagram\u003c/p\u003e","key_press":null,"trial_type":"html-keyboard-response","trial_index":13,"time_elapsed":287998,"internal_node_id":"0.0-5.2-2.2","responseType":"finish","participantID":"k3w4wqayv7qm6yv15j0850lla9cggvmx","conditionNumber":"none"},{"rt":null,"stimulus":"\u003cp\u003e\u003ch1\u003eORAGNIC\u003c/h1\u003e\u003c/p\u003e","key_press":null,"trial_type":"html-keyboard-response","trial_index":14,"time_elapsed":292000,"internal_node_id":"0.0-5.3-0.3","responseType":"finish","participantID":"k3w4wqayv7qm6yv15j0850lla9cggvmx","conditionNumber":"none"},{"rt":2168,"responses":"{\"Q0\":9}","trial_type":"survey-likert","trial_index":15,"time_elapsed":294169,"internal_node_id":"0.0-5.3-1.3","responseType":"finish","participantID":"k3w4wqayv7qm6yv15j0850lla9cggvmx","conditionNumber":"none"},{"rt":null,"stimulus":"\u003cp\u003eNow we will show you another configuration of the anagram\u003c/p\u003e","key_press":null,"trial_type":"html-keyboard-response","trial_index":16,"time_elapsed":294172,"internal_node_id":"0.0-5.3-2.3","responseType":"finish","participantID":"k3w4wqayv7qm6yv15j0850lla9cggvmx","conditionNumber":"none"},{"rt":3776,"responses":"{\"Q0\":9}","trial_type":"survey-likert","trial_index":17,"time_elapsed":297950,"internal_node_id":"0.0-6.0","responseType":"finish","participantID":"k3w4wqayv7qm6yv15j0850lla9cggvmx","conditionNumber":"none"}],"__v":0}
{"_id":{"$oid":"5d66e99d15e625000487c687"},"data":{"responseType":"start","participantID":"ph7o2q9bvah2oqqkqud2kehl1cgt00sf","conditionNumber":"none"},"__v":0}
{"_id":{"$oid":"5d66e9d915e625000487c688"},"data":{"responseType":"start","participantID":"zkts716dtxymea8ron2ye03t04mojnr4","conditionNumber":"hint"},"__v":0}
{"_id":{"$oid":"5d66e9db15e625000487c689"},"data":{"responseType":"start","participantID":"13841o5bz8g3u53kulsbyelzlrtmrztx","conditionNumber":"hint"},"__v":0}
{"_id":{"$oid":"5d66e9e015e625000487c68a"},"data":{"responseType":"start","participantID":"m877duam96707zc3k89fd6m6fglspmyl","conditionNumber":"hint"},"__v":0}
{"_id":{"$oid":"5d66ea1f15e625000487c68b"},"data":[{"rt":6531,"responses":"{\"Q0\":\" I consent to participate \"}","trial_type":"survey-multi-choice","trial_index":0,"time_elapsed":6538,"internal_node_id":"0.0-0.0","responseType":"finish","participantID":"ph7o2q9bvah2oqqkqud2kehl1cgt00sf","conditionNumber":"none"},{"trial_type":"call-function","trial_index":1,"time_elapsed":6549,"internal_node_id":"0.0-1.0","responseType":"finish","participantID":"ph7o2q9bvah2oqqkqud2kehl1cgt00sf","conditionNumber":"none"},{"rt":32797,"stimulus":"\u003ch1 id=\"welcome\"\u003eWelcome\u003c/h1\u003e\n\u003cp\u003eWelcome to the Experiment! In this experiment, we will give you one \u003cem\u003eanagram\u003c/em\u003e to solve. An \u003cem\u003eanagram\u003c/em\u003e is simply a word or phrase formed by rearranging the letters of another word or phrase. For example:\u003c/p\u003e\n\u003cul\u003e\n\u003cli\u003e\u003cstrong\u003ePOKER\u003c/strong\u003e is an anagram of \u003cstrong\u003ePKOER\u003c/strong\u003e\u003c/li\u003e\n\u003cli\u003e\u003cstrong\u003ePHONE\u003c/strong\u003e is an anagram of \u003cstrong\u003ePOEHN\u003c/strong\u003e\u003c/li\u003e\n\u003c/ul\u003e\n\u003cp\u003eWe kindly request for your full attention for the experiment and ask you to refrain from using Google or other search engines. \u003c/p\u003e\n\u003cp\u003ePlease press the \u003cstrong\u003e'n' key\u003c/strong\u003e to continue once you understand.\u003c/p\u003e","key_press":78,"trial_type":"html-keyboard-response","trial_index":2,"time_elapsed":39348,"internal_node_id":"0.0-2.0","responseType":"finish","participantID":"ph7o2q9bvah2oqqkqud2kehl1cgt00sf","conditionNumber":"none"},{"rt":26783,"stimulus":"\u003ch1 id=\"instructions\"\u003eInstructions\u003c/h1\u003e\n\u003cp\u003eWhen you click next, you will be presented with an anagram that will be displayed for 4 seconds. Following that, the \u003cem\u003esame\u003c/em\u003e anagram will be presented to you again in a \u003cem\u003edifferent\u003c/em\u003e configuration for 4 seconds. This will be repeated multiple times and your goal is to solve the anagram by the end of the experiment. \u003c/p\u003e\n\u003cp\u003eAs an example, you may be presented with random configurations such as: \u003cstrong\u003eONLEM\u003c/strong\u003e, \u003cstrong\u003eMOELN\u003c/strong\u003e, and \u003cstrong\u003eNMEOL\u003c/strong\u003e. Here, these configurations come from the same anagram, LEMON and your goal was figuring out the underlying anagram. \u003c/p\u003e\n\u003cp\u003ePlease press the \u003cstrong\u003e'm' key\u003c/strong\u003e to continue once you understand.\u003c/p\u003e","key_press":77,"trial_type":"html-keyboard-response","trial_index":3,"time_elapsed":66144,"internal_node_id":"0.0-3.0","responseType":"finish","participantID":"ph7o2q9bvah2oqqkqud2kehl1cgt00sf","conditionNumber":"none"},{"rt":7643,"stimulus":"\u003ch1 id=\"instructions\"\u003eInstructions\u003c/h1\u003e\n\u003cp\u003eNow, we will present you the anagram which you have to solve. We will present the anagram to you in various different configurations. Please try your best to solve the anagram. \u003c/p\u003e\n\u003cp\u003ePlease press the \u003cstrong\u003e'b' key\u003c/strong\u003e to continue.\u003c/p\u003e","key_press":66,"trial_type":"html-keyboard-response","trial_index":4,"time_elapsed":73788,"internal_node_id":"0.0-4.0","responseType":"finish","participantID":"ph7o2q9bvah2oqqkqud2kehl1cgt00sf","conditionNumber":"none"},{"rt":null,"stimulus":"\u003cp\u003e\u003ch1\u003eOCRAIGN\u003c/h1\u003e\u003c/p\u003e","key_press":null,"trial_type":"html-keyboard-response","trial_index":5,"time_elapsed":77791,"internal_node_id":"0.0-5.0-0.0","responseType":"finish","participantID":"ph7o2q9bvah2oqqkqud2kehl1cgt00sf","conditionNumber":"none"},{"rt":6552,"responses":"{\"Q0\":1}","trial_type":"survey-likert","trial_index":6,"time_elapsed":84345,"internal_node_id":"0.0-5.0-1.0","responseType":"finish","participantID":"ph7o2q9bvah2oqqkqud2kehl1cgt00sf","conditionNumber":"none"},{"rt":null,"stimulus":"\u003cp\u003eNow we will show you another configuration of the anagram\u003c/p\u003e","key_press":null,"trial_type":"html-keyboard-response","trial_index":7,"time_elapsed":90351,"internal_node_id":"0.0-5.0-2.0","responseType":"finish","participantID":"ph7o2q9bvah2oqqkqud2kehl1cgt00sf","conditionNumber":"none"},{"rt":null,"stimulus":"\u003cp\u003e\u003ch1\u003eCROAIGN\u003c/h1\u003e\u003c/p\u003e","key_press":null,"trial_type":"html-keyboard-response","trial_index":8,"time_elapsed":94354,"internal_node_id":"0.0-5.1-0.1","responseType":"finish","participantID":"ph7o2q9bvah2oqqkqud2kehl1cgt00sf","conditionNumber":"none"},{"rt":4330,"responses":"{\"Q0\":1}","trial_type":"survey-likert","trial_index":9,"time_elapsed":98685,"internal_node_id":"0.0-5.1-1.1","responseType":"finish","participantID":"ph7o2q9bvah2oqqkqud2kehl1cgt00sf","conditionNumber":"none"},{"rt":null,"stimulus":"\u003cp\u003eNow we will show you another configuration of the anagram\u003c/p\u003e","key_press":null,"trial_type":"html-keyboard-response","trial_index":10,"time_elapsed":104696,"internal_node_id":"0.0-5.1-2.1","responseType":"finish","participantID":"ph7o2q9bvah2oqqkqud2kehl1cgt00sf","conditionNumber":"none"},{"rt":null,"stimulus":"\u003cp\u003e\u003ch1\u003eNACGIOR\u003c/h1\u003e\u003c/p\u003e","key_press":null,"trial_type":"html-keyboard-response","trial_index":11,"time_elapsed":108698,"internal_node_id":"0.0-5.2-0.2","responseType":"finish","participantID":"ph7o2q9bvah2oqqkqud2kehl1cgt00sf","conditionNumber":"none"},{"rt":3298,"responses":"{\"Q0\":1}","trial_type":"survey-likert","trial_index":12,"time_elapsed":111998,"internal_node_id":"0.0-5.2-1.2","responseType":"finish","participantID":"ph7o2q9bvah2oqqkqud2kehl1cgt00sf","conditionNumber":"none"},{"rt":null,"stimulus":"\u003cp\u003eNow we will show you another configuration of the anagram\u003c/p\u003e","key_press":null,"trial_type":"html-keyboard-response","trial_index":13,"time_elapsed":118009,"internal_node_id":"0.0-5.2-2.2","responseType":"finish","participantID":"ph7o2q9bvah2oqqkqud2kehl1cgt00sf","conditionNumber":"none"},{"rt":null,"stimulus":"\u003cp\u003e\u003ch1\u003eORAGNIC\u003c/h1\u003e\u003c/p\u003e","key_press":null,"trial_type":"html-keyboard-response","trial_index":14,"time_elapsed":122012,"internal_node_id":"0.0-5.3-0.3","responseType":"finish","participantID":"ph7o2q9bvah2oqqkqud2kehl1cgt00sf","conditionNumber":"none"},{"rt":5520,"responses":"{\"Q0\":6}","trial_type":"survey-likert","trial_index":15,"time_elapsed":127533,"internal_node_id":"0.0-5.3-1.3","responseType":"finish","participantID":"ph7o2q9bvah2oqqkqud2kehl1cgt00sf","conditionNumber":"none"},{"rt":null,"stimulus":"\u003cp\u003eNow we will show you another configuration of the anagram\u003c/p\u003e","key_press":null,"trial_type":"html-keyboard-response","trial_index":16,"time_elapsed":127541,"internal_node_id":"0.0-5.3-2.3","responseType":"finish","participantID":"ph7o2q9bvah2oqqkqud2kehl1cgt00sf","conditionNumber":"none"},{"rt":8985,"responses":"{\"Q0\":7}","trial_type":"survey-likert","trial_index":17,"time_elapsed":136527,"internal_node_id":"0.0-6.0","responseType":"finish","participantID":"ph7o2q9bvah2oqqkqud2kehl1cgt00sf","conditionNumber":"none"}],"__v":0}
{"_id":{"$oid":"5d66ea2c15e625000487c68c"},"data":{"responseType":"start","participantID":"0jtpcb426lmjztym2canvwynyfhhyn2c","conditionNumber":"hint"},"__v":0}
{"_id":{"$oid":"5d66ea2d15e625000487c68d"},"data":[{"rt":8486,"responses":"{\"Q0\":\" I consent to participate \"}","trial_type":"survey-multi-choice","trial_index":0,"time_elapsed":8545,"internal_node_id":"0.0-0.0","responseType":"finish","participantID":"zkts716dtxymea8ron2ye03t04mojnr4","conditionNumber":"hint"},{"trial_type":"call-function","trial_index":1,"time_elapsed":8572,"internal_node_id":"0.0-1.0","responseType":"finish","participantID":"zkts716dtxymea8ron2ye03t04mojnr4","conditionNumber":"hint"},{"rt":9190,"stimulus":"\u003ch1 id=\"welcome\"\u003eWelcome\u003c/h1\u003e\n\u003cp\u003eWelcome to the Experiment! In this experiment, we will give you one \u003cem\u003eanagram\u003c/em\u003e to solve. An \u003cem\u003eanagram\u003c/em\u003e is simply a word or phrase formed by rearranging the letters of another word or phrase. For example:\u003c/p\u003e\n\u003cul\u003e\n\u003cli\u003e\u003cstrong\u003ePOKER\u003c/strong\u003e is an anagram of \u003cstrong\u003ePKOER\u003c/strong\u003e\u003c/li\u003e\n\u003cli\u003e\u003cstrong\u003ePHONE\u003c/strong\u003e is an anagram of \u003cstrong\u003ePOEHN\u003c/strong\u003e\u003c/li\u003e\n\u003c/ul\u003e\n\u003cp\u003eWe kindly request for your full attention for the experiment and ask you to refrain from using Google or other search engines. \u003c/p\u003e\n\u003cp\u003ePlease press the \u003cstrong\u003e'n' key\u003c/strong\u003e to continue once you understand.\u003c/p\u003e","key_press":78,"trial_type":"html-keyboard-response","trial_index":2,"time_elapsed":17774,"internal_node_id":"0.0-2.0","responseType":"finish","participantID":"zkts716dtxymea8ron2ye03t04mojnr4","conditionNumber":"hint"},{"rt":13932,"stimulus":"\u003ch1 id=\"instructions\"\u003eInstructions\u003c/h1\u003e\n\u003cp\u003eWhen you click next, you will be presented with an anagram that will be displayed for 4 seconds. Following that, the \u003cem\u003esame\u003c/em\u003e anagram will be presented to you again in a \u003cem\u003edifferent\u003c/em\u003e configuration for 4 seconds. \u003c/p\u003e\n\u003cp\u003eIn total, we will present the anagram to you in \u003cstrong\u003ethree\u003c/strong\u003e different configurations. If you have not figured the answer to the anagram by then, then we will show a much \u003cstrong\u003eeasier\u003c/strong\u003e configuration of that anagram to you. \u003c/p\u003e\n\u003cp\u003eAs an example, you may be presented with random configurations such as: \u003cstrong\u003eONLEM\u003c/strong\u003e, \u003cstrong\u003eMOELN\u003c/strong\u003e, \u003cstrong\u003eNMEOL\u003c/strong\u003e, and finally the easier configuration, \u003cstrong\u003eLMEON\u003c/strong\u003e. Here, these configurations come from the same anagram, LEMON and your goal was figuring out the underlying anagram. \u003c/p\u003e\n\u003cp\u003ePlease press the \u003cstrong\u003e'm' key\u003c/strong\u003e to continue once you understand.\u003c/p\u003e","key_press":77,"trial_type":"html-keyboard-response","trial_index":3,"time_elapsed":31726,"internal_node_id":"0.0-3.0","responseType":"finish","participantID":"zkts716dtxymea8ron2ye03t04mojnr4","conditionNumber":"hint"},{"rt":4061,"stimulus":"\u003ch1 id=\"instructions\"\u003eInstructions\u003c/h1\u003e\n\u003cp\u003eNow, we will present you the anagram which you have to solve. We will present the anagram to you in \u003cstrong\u003ethree\u003c/strong\u003e different configurations. If you have not figured the answer to the anagram by then, then we will show a much \u003cstrong\u003eeasier\u003c/strong\u003e configuration to you. \u003c/p\u003e\n\u003cp\u003ePlease press the \u003cstrong\u003e'b' key\u003c/strong\u003e to continue.\u003c/p\u003e","key_press":66,"trial_type":"html-keyboard-response","trial_index":4,"time_elapsed":35795,"internal_node_id":"0.0-4.0","responseType":"finish","participantID":"zkts716dtxymea8ron2ye03t04mojnr4","conditionNumber":"hint"},{"rt":null,"stimulus":"\u003cp\u003e\u003ch1\u003eOCRAIGN\u003c/h1\u003e\u003c/p\u003e","key_press":null,"trial_type":"html-keyboard-response","trial_index":5,"time_elapsed":39803,"internal_node_id":"0.0-5.0-0.0","responseType":"finish","participantID":"zkts716dtxymea8ron2ye03t04mojnr4","conditionNumber":"hint"},{"rt":4236,"responses":"{\"Q0\":3}","trial_type":"survey-likert","trial_index":6,"time_elapsed":44044,"internal_node_id":"0.0-5.0-1.0","responseType":"finish","participantID":"zkts716dtxymea8ron2ye03t04mojnr4","conditionNumber":"hint"},{"rt":null,"stimulus":"\u003cp\u003eNow we will show you another configuration of the anagram\u003c/p\u003e","key_press":null,"trial_type":"html-keyboard-response","trial_index":7,"time_elapsed":50065,"internal_node_id":"0.0-5.0-2.0","responseType":"finish","participantID":"zkts716dtxymea8ron2ye03t04mojnr4","conditionNumber":"hint"},{"rt":null,"stimulus":"\u003cp\u003e\u003ch1\u003eCROAIGN\u003c/h1\u003e\u003c/p\u003e","key_press":null,"trial_type":"html-keyboard-response","trial_index":8,"time_elapsed":54071,"internal_node_id":"0.0-5.1-0.1","responseType":"finish","participantID":"zkts716dtxymea8ron2ye03t04mojnr4","conditionNumber":"hint"},{"rt":3685,"responses":"{\"Q0\":2}","trial_type":"survey-likert","trial_index":9,"time_elapsed":57758,"internal_node_id":"0.0-5.1-1.1","responseType":"finish","participantID":"zkts716dtxymea8ron2ye03t04mojnr4","conditionNumber":"hint"},{"rt":null,"stimulus":"\u003cp\u003eNow we will show you another configuration of the anagram\u003c/p\u003e","key_press":null,"trial_type":"html-keyboard-response","trial_index":10,"time_elapsed":63771,"internal_node_id":"0.0-5.1-2.1","responseType":"finish","participantID":"zkts716dtxymea8ron2ye03t04mojnr4","conditionNumber":"hint"},{"rt":null,"stimulus":"\u003cp\u003e\u003ch1\u003eNACGIOR\u003c/h1\u003e\u003c/p\u003e","key_press":null,"trial_type":"html-keyboard-response","trial_index":11,"time_elapsed":67779,"internal_node_id":"0.0-5.2-0.2","responseType":"finish","participantID":"zkts716dtxymea8ron2ye03t04mojnr4","conditionNumber":"hint"},{"rt":3804,"responses":"{\"Q0\":2}","trial_type":"survey-likert","trial_index":12,"time_elapsed":71587,"internal_node_id":"0.0-5.2-1.2","responseType":"finish","participantID":"zkts716dtxymea8ron2ye03t04mojnr4","conditionNumber":"hint"},{"rt":null,"stimulus":"\u003cp\u003eWe will now show you a much \u003cb\u003eeasier\u003c/b\u003e configuration of this anagram\u003c/p\u003e","key_press":null,"trial_type":"html-keyboard-response","trial_index":13,"time_elapsed":77636,"internal_node_id":"0.0-5.2-2.2","responseType":"finish","participantID":"zkts716dtxymea8ron2ye03t04mojnr4","conditionNumber":"hint"},{"rt":null,"stimulus":"\u003cp\u003e\u003ch1\u003eORAGNIC\u003c/h1\u003e\u003c/p\u003e","key_press":null,"trial_type":"html-keyboard-response","trial_index":14,"time_elapsed":81646,"internal_node_id":"0.0-5.3-0.3","responseType":"finish","participantID":"zkts716dtxymea8ron2ye03t04mojnr4","conditionNumber":"hint"},{"rt":4808,"responses":"{\"Q0\":9}","trial_type":"survey-likert","trial_index":15,"time_elapsed":86457,"internal_node_id":"0.0-5.3-1.3","responseType":"finish","participantID":"zkts716dtxymea8ron2ye03t04mojnr4","conditionNumber":"hint"},{"rt":null,"stimulus":"\u003cp\u003eNow we will show you another configuration of the anagram\u003c/p\u003e","key_press":null,"trial_type":"html-keyboard-response","trial_index":16,"time_elapsed":86463,"internal_node_id":"0.0-5.3-2.3","responseType":"finish","participantID":"zkts716dtxymea8ron2ye03t04mojnr4","conditionNumber":"hint"},{"rt":6022,"responses":"{\"Q0\":9}","trial_type":"survey-likert","trial_index":17,"time_elapsed":92489,"internal_node_id":"0.0-6.0","responseType":"finish","participantID":"zkts716dtxymea8ron2ye03t04mojnr4","conditionNumber":"hint"}],"__v":0}
{"_id":{"$oid":"5d66ea2e15e625000487c68e"},"data":{"responseType":"start","participantID":"nrdn2b11p6p4ksclef9srnno8xvg1zfh","conditionNumber":"hint"},"__v":0}
{"_id":{"$oid":"5d66ea3215e625000487c68f"},"data":[{"rt":7088,"responses":"{\"Q0\":\" I consent to participate \"}","trial_type":"survey-multi-choice","trial_index":0,"time_elapsed":7096,"internal_node_id":"0.0-0.0","responseType":"finish","participantID":"m877duam96707zc3k89fd6m6fglspmyl","conditionNumber":"hint"},{"trial_type":"call-function","trial_index":1,"time_elapsed":7102,"internal_node_id":"0.0-1.0","responseType":"finish","participantID":"m877duam96707zc3k89fd6m6fglspmyl","conditionNumber":"hint"},{"rt":5930,"stimulus":"\u003ch1 id=\"welcome\"\u003eWelcome\u003c/h1\u003e\n\u003cp\u003eWelcome to the Experiment! In this experiment, we will give you one \u003cem\u003eanagram\u003c/em\u003e to solve. An \u003cem\u003eanagram\u003c/em\u003e is simply a word or phrase formed by rearranging the letters of another word or phrase. For example:\u003c/p\u003e\n\u003cul\u003e\n\u003cli\u003e\u003cstrong\u003ePOKER\u003c/strong\u003e is an anagram of \u003cstrong\u003ePKOER\u003c/strong\u003e\u003c/li\u003e\n\u003cli\u003e\u003cstrong\u003ePHONE\u003c/strong\u003e is an anagram of \u003cstrong\u003ePOEHN\u003c/strong\u003e\u003c/li\u003e\n\u003c/ul\u003e\n\u003cp\u003eWe kindly request for your full attention for the experiment and ask you to refrain from using Google or other search engines. \u003c/p\u003e\n\u003cp\u003ePlease press the \u003cstrong\u003e'n' key\u003c/strong\u003e to continue once you understand.\u003c/p\u003e","key_press":78,"trial_type":"html-keyboard-response","trial_index":2,"time_elapsed":13034,"internal_node_id":"0.0-2.0","responseType":"finish","participantID":"m877duam96707zc3k89fd6m6fglspmyl","conditionNumber":"hint"},{"rt":8562,"stimulus":"\u003ch1 id=\"instructions\"\u003eInstructions\u003c/h1\u003e\n\u003cp\u003eWhen you click next, you will be presented with an anagram that will be displayed for 4 seconds. Following that, the \u003cem\u003esame\u003c/em\u003e anagram will be presented to you again in a \u003cem\u003edifferent\u003c/em\u003e configuration for 4 seconds. \u003c/p\u003e\n\u003cp\u003eIn total, we will present the anagram to you in \u003cstrong\u003ethree\u003c/strong\u003e different configurations. If you have not figured the answer to the anagram by then, then we will show a much \u003cstrong\u003eeasier\u003c/strong\u003e configuration of that anagram to you. \u003c/p\u003e\n\u003cp\u003eAs an example, you may be presented with random configurations such as: \u003cstrong\u003eONLEM\u003c/strong\u003e, \u003cstrong\u003eMOELN\u003c/strong\u003e, \u003cstrong\u003eNMEOL\u003c/strong\u003e, and finally the easier configuration, \u003cstrong\u003eLMEON\u003c/strong\u003e. Here, these configurations come from the same anagram, LEMON and your goal was figuring out the underlying anagram. \u003c/p\u003e\n\u003cp\u003ePlease press the \u003cstrong\u003e'm' key\u003c/strong\u003e to continue once you understand.\u003c/p\u003e","key_press":77,"trial_type":"html-keyboard-response","trial_index":3,"time_elapsed":21603,"internal_node_id":"0.0-3.0","responseType":"finish","participantID":"m877duam96707zc3k89fd6m6fglspmyl","conditionNumber":"hint"},{"rt":3306,"stimulus":"\u003ch1 id=\"instructions\"\u003eInstructions\u003c/h1\u003e\n\u003cp\u003eNow, we will present you the anagram which you have to solve. We will present the anagram to you in \u003cstrong\u003ethree\u003c/strong\u003e different configurations. If you have not figured the answer to the anagram by then, then we will show a much \u003cstrong\u003eeasier\u003c/strong\u003e configuration to you. \u003c/p\u003e\n\u003cp\u003ePlease press the \u003cstrong\u003e'b' key\u003c/strong\u003e to continue.\u003c/p\u003e","key_press":66,"trial_type":"html-keyboard-response","trial_index":4,"time_elapsed":24911,"internal_node_id":"0.0-4.0","responseType":"finish","participantID":"m877duam96707zc3k89fd6m6fglspmyl","conditionNumber":"hint"},{"rt":null,"stimulus":"\u003cp\u003e\u003ch1\u003eOCRAIGN\u003c/h1\u003e\u003c/p\u003e","key_press":null,"trial_type":"html-keyboard-response","trial_index":5,"time_elapsed":28930,"internal_node_id":"0.0-5.0-0.0","responseType":"finish","participantID":"m877duam96707zc3k89fd6m6fglspmyl","conditionNumber":"hint"},{"rt":8000,"responses":"{\"Q0\":6}","trial_type":"survey-likert","trial_index":6,"time_elapsed":36935,"internal_node_id":"0.0-5.0-1.0","responseType":"finish","participantID":"m877duam96707zc3k89fd6m6fglspmyl","conditionNumber":"hint"},{"rt":null,"stimulus":"\u003cp\u003eNow we will show you another configuration of the anagram\u003c/p\u003e","key_press":null,"trial_type":"html-keyboard-response","trial_index":7,"time_elapsed":42939,"internal_node_id":"0.0-5.0-2.0","responseType":"finish","participantID":"m877duam96707zc3k89fd6m6fglspmyl","conditionNumber":"hint"},{"rt":null,"stimulus":"\u003cp\u003e\u003ch1\u003eCROAIGN\u003c/h1\u003e\u003c/p\u003e","key_press":null,"trial_type":"html-keyboard-response","trial_index":8,"time_elapsed":46946,"internal_node_id":"0.0-5.1-0.1","responseType":"finish","participantID":"m877duam96707zc3k89fd6m6fglspmyl","conditionNumber":"hint"},{"rt":4070,"responses":"{\"Q0\":6}","trial_type":"survey-likert","trial_index":9,"time_elapsed":51020,"internal_node_id":"0.0-5.1-1.1","responseType":"finish","participantID":"m877duam96707zc3k89fd6m6fglspmyl","conditionNumber":"hint"},{"rt":null,"stimulus":"\u003cp\u003eNow we will show you another configuration of the anagram\u003c/p\u003e","key_press":null,"trial_type":"html-keyboard-response","trial_index":10,"time_elapsed":57024,"internal_node_id":"0.0-5.1-2.1","responseType":"finish","participantID":"m877duam96707zc3k89fd6m6fglspmyl","conditionNumber":"hint"},{"rt":null,"stimulus":"\u003cp\u003e\u003ch1\u003eNACGIOR\u003c/h1\u003e\u003c/p\u003e","key_press":null,"trial_type":"html-keyboard-response","trial_index":11,"time_elapsed":61028,"internal_node_id":"0.0-5.2-0.2","responseType":"finish","participantID":"m877duam96707zc3k89fd6m6fglspmyl","conditionNumber":"hint"},{"rt":5525,"responses":"{\"Q0\":5}","trial_type":"survey-likert","trial_index":12,"time_elapsed":66555,"internal_node_id":"0.0-5.2-1.2","responseType":"finish","participantID":"m877duam96707zc3k89fd6m6fglspmyl","conditionNumber":"hint"},{"rt":null,"stimulus":"\u003cp\u003eWe will now show you a much \u003cb\u003eeasier\u003c/b\u003e configuration of this anagram\u003c/p\u003e","key_press":null,"trial_type":"html-keyboard-response","trial_index":13,"time_elapsed":72560,"internal_node_id":"0.0-5.2-2.2","responseType":"finish","participantID":"m877duam96707zc3k89fd6m6fglspmyl","conditionNumber":"hint"},{"rt":null,"stimulus":"\u003cp\u003e\u003ch1\u003eORAGNIC\u003c/h1\u003e\u003c/p\u003e","key_press":null,"trial_type":"html-keyboard-response","trial_index":14,"time_elapsed":76562,"internal_node_id":"0.0-5.3-0.3","responseType":"finish","participantID":"m877duam96707zc3k89fd6m6fglspmyl","conditionNumber":"hint"},{"rt":3600,"responses":"{\"Q0\":9}","trial_type":"survey-likert","trial_index":15,"time_elapsed":80164,"internal_node_id":"0.0-5.3-1.3","responseType":"finish","participantID":"m877duam96707zc3k89fd6m6fglspmyl","conditionNumber":"hint"},{"rt":null,"stimulus":"\u003cp\u003eNow we will show you another configuration of the anagram\u003c/p\u003e","key_press":null,"trial_type":"html-keyboard-response","trial_index":16,"time_elapsed":80168,"internal_node_id":"0.0-5.3-2.3","responseType":"finish","participantID":"m877duam96707zc3k89fd6m6fglspmyl","conditionNumber":"hint"},{"rt":8897,"responses":"{\"Q0\":7}","trial_type":"survey-likert","trial_index":17,"time_elapsed":89068,"internal_node_id":"0.0-6.0","responseType":"finish","participantID":"m877duam96707zc3k89fd6m6fglspmyl","conditionNumber":"hint"}],"__v":0}
{"_id":{"$oid":"5d66ea3f15e625000487c690"},"data":{"responseType":"start","participantID":"3repphrhbfq6tv04j20l5zqwlm2v14kr","conditionNumber":"none"},"__v":0}
