{"_id":{"$oid":"5d6d9f1821e1970004d4b899"},"data":{"responseType":"start","participantID":"q6s6mscwyo2pbm5xc1kqgf44kmy0kj97","conditionNumber":"unexpected"},"__v":0}
{"_id":{"$oid":"5d6d9f6e21e1970004d4b89a"},"data":{"responseType":"start","participantID":"g2q44dnghe30ote6jr3x77rz1waazyfo","conditionNumber":"expected"},"__v":0}
{"_id":{"$oid":"5d6d9f8121e1970004d4b89b"},"data":[{"rt":3813,"responses":"{\"Q0\":\" I consent to participate \"}","trial_type":"survey-multi-choice","trial_index":0,"time_elapsed":3821,"internal_node_id":"0.0-0.0","responseType":"finish","participantID":"q6s6mscwyo2pbm5xc1kqgf44kmy0kj97","conditionNumber":"unexpected"},{"trial_type":"call-function","trial_index":1,"time_elapsed":3827,"internal_node_id":"0.0-1.0","responseType":"finish","participantID":"q6s6mscwyo2pbm5xc1kqgf44kmy0kj97","conditionNumber":"unexpected"},{"rt":3180,"stimulus":"\u003ch1 id=\"welcome\"\u003eWelcome\u003c/h1\u003e\n\u003cp\u003eWelcome to the Experiment! In this experiment, we will give you two \u003cem\u003eanagrams\u003c/em\u003e to solve. An \u003cem\u003eanagram\u003c/em\u003e is simply a word or phrase formed by rearranging the letters of another word or phrase. For example:\u003c/p\u003e\n\u003cul\u003e\n\u003cli\u003e\u003cstrong\u003ePOKER\u003c/strong\u003e is an anagram of \u003cstrong\u003ePKOER\u003c/strong\u003e\u003c/li\u003e\n\u003cli\u003e\u003cstrong\u003ePIKE\u003c/strong\u003e is an anagram of \u003cstrong\u003eKEPI\u003c/strong\u003e\u003c/li\u003e\n\u003c/ul\u003e\n\u003cp\u003eWe kindly request for your full attention for the experiment and ask you to refrain from using Google or other search engines. \u003c/p\u003e\n\u003cp\u003ePlease press the \u003cstrong\u003e'n' key\u003c/strong\u003e to continue once you understand.\u003c/p\u003e","key_press":78,"trial_type":"html-keyboard-response","trial_index":2,"time_elapsed":7008,"internal_node_id":"0.0-2.0","responseType":"finish","participantID":"q6s6mscwyo2pbm5xc1kqgf44kmy0kj97","conditionNumber":"unexpected"},{"rt":1817,"stimulus":"\u003ch1 id=\"instructions\"\u003eInstructions\u003c/h1\u003e\n\u003cp\u003eWhen you click next, you will be presented with an anagram that will be displayed for 4 seconds. Following that, the \u003cem\u003esame\u003c/em\u003e anagram will be presented to you again in a \u003cem\u003edifferent\u003c/em\u003e configuration for 4 seconds. \u003c/p\u003e\n\u003cp\u003eIn total, we will present the anagram to you in \u003cstrong\u003ethree\u003c/strong\u003e different configurations. If you have not figured the answer to the anagram by then, then at the \u003cstrong\u003efourth\u003c/strong\u003e time, we will show a much \u003cstrong\u003eeasier\u003c/strong\u003e configuration of that anagram to you. \u003c/p\u003e\n\u003cp\u003eAs an example, you may be presented with random configurations such as: \u003cstrong\u003eONLEM\u003c/strong\u003e, \u003cstrong\u003eMOELN\u003c/strong\u003e, \u003cstrong\u003eNMEOL\u003c/strong\u003e, and finally the easier configuration, \u003cstrong\u003eLMEON\u003c/strong\u003e. Here, these configurations come from the same anagram, LEMON and your goal was figuring out the underlying anagram. \u003c/p\u003e\n\u003cp\u003ePlease press the \u003cstrong\u003e'm' key\u003c/strong\u003e to continue once you understand.\u003c/p\u003e","key_press":77,"trial_type":"html-keyboard-response","trial_index":3,"time_elapsed":8825,"internal_node_id":"0.0-3.0","responseType":"finish","participantID":"q6s6mscwyo2pbm5xc1kqgf44kmy0kj97","conditionNumber":"unexpected"},{"rt":3176,"stimulus":"\u003ch1 id=\"instructions\"\u003eInstructions\u003c/h1\u003e\n\u003cp\u003eNow, we will present you the first anagram which you have to solve. We will present the anagram to you in \u003cstrong\u003ethree\u003c/strong\u003e different configurations. If you have not figured the answer to the anagram by then, then we will show a much \u003cstrong\u003eeasier\u003c/strong\u003e configuration to you in the \u003cstrong\u003efourth\u003c/strong\u003e iteration. \u003c/p\u003e\n\u003cp\u003ePlease press the \u003cstrong\u003e'b' key\u003c/strong\u003e to continue.\u003c/p\u003e","key_press":66,"trial_type":"html-keyboard-response","trial_index":4,"time_elapsed":12003,"internal_node_id":"0.0-4.0","responseType":"finish","participantID":"q6s6mscwyo2pbm5xc1kqgf44kmy0kj97","conditionNumber":"unexpected"},{"rt":null,"stimulus":"\u003cp\u003e\u003ch1\u003eOHEPN\u003c/h1\u003e\u003c/p\u003e","key_press":null,"trial_type":"html-keyboard-response","trial_index":5,"time_elapsed":16005,"internal_node_id":"0.0-5.0-0.0","responseType":"finish","participantID":"q6s6mscwyo2pbm5xc1kqgf44kmy0kj97","conditionNumber":"unexpected"},{"rt":2796,"responses":"{\"Q0\":9}","trial_type":"survey-likert","trial_index":6,"time_elapsed":18803,"internal_node_id":"0.0-5.0-1.0","responseType":"finish","participantID":"q6s6mscwyo2pbm5xc1kqgf44kmy0kj97","conditionNumber":"unexpected"},{"rt":null,"stimulus":"\u003cp\u003eNow we will show you another configuration of the anagram\u003c/p\u003e","key_press":null,"trial_type":"html-keyboard-response","trial_index":7,"time_elapsed":24809,"internal_node_id":"0.0-5.0-2.0","responseType":"finish","participantID":"q6s6mscwyo2pbm5xc1kqgf44kmy0kj97","conditionNumber":"unexpected"},{"rt":null,"stimulus":"\u003cp\u003e\u003ch1\u003eEPHNO\u003c/h1\u003e\u003c/p\u003e","key_press":null,"trial_type":"html-keyboard-response","trial_index":8,"time_elapsed":28813,"internal_node_id":"0.0-5.1-0.1","responseType":"finish","participantID":"q6s6mscwyo2pbm5xc1kqgf44kmy0kj97","conditionNumber":"unexpected"},{"rt":1604,"responses":"{\"Q0\":9}","trial_type":"survey-likert","trial_index":9,"time_elapsed":30417,"internal_node_id":"0.0-5.1-1.1","responseType":"finish","participantID":"q6s6mscwyo2pbm5xc1kqgf44kmy0kj97","conditionNumber":"unexpected"},{"rt":null,"stimulus":"\u003cp\u003eNow we will show you another configuration of the anagram\u003c/p\u003e","key_press":null,"trial_type":"html-keyboard-response","trial_index":10,"time_elapsed":36421,"internal_node_id":"0.0-5.1-2.1","responseType":"finish","participantID":"q6s6mscwyo2pbm5xc1kqgf44kmy0kj97","conditionNumber":"unexpected"},{"rt":null,"stimulus":"\u003cp\u003e\u003ch1\u003eHNPEO\u003c/h1\u003e\u003c/p\u003e","key_press":null,"trial_type":"html-keyboard-response","trial_index":11,"time_elapsed":40423,"internal_node_id":"0.0-5.2-0.2","responseType":"finish","participantID":"q6s6mscwyo2pbm5xc1kqgf44kmy0kj97","conditionNumber":"unexpected"},{"rt":2519,"responses":"{\"Q0\":8}","trial_type":"survey-likert","trial_index":12,"time_elapsed":42943,"internal_node_id":"0.0-5.2-1.2","responseType":"finish","participantID":"q6s6mscwyo2pbm5xc1kqgf44kmy0kj97","conditionNumber":"unexpected"},{"rt":null,"stimulus":"\u003cp\u003eWe will now show you a much \u003cb\u003eeasier\u003c/b\u003e configuration of this anagram\u003c/p\u003e","key_press":null,"trial_type":"html-keyboard-response","trial_index":13,"time_elapsed":48944,"internal_node_id":"0.0-5.2-2.2","responseType":"finish","participantID":"q6s6mscwyo2pbm5xc1kqgf44kmy0kj97","conditionNumber":"unexpected"},{"rt":null,"stimulus":"\u003cp\u003e\u003ch1\u003ePHNOE\u003c/h1\u003e\u003c/p\u003e","key_press":null,"trial_type":"html-keyboard-response","trial_index":14,"time_elapsed":52947,"internal_node_id":"0.0-5.3-0.3","responseType":"finish","participantID":"q6s6mscwyo2pbm5xc1kqgf44kmy0kj97","conditionNumber":"unexpected"},{"rt":1729,"responses":"{\"Q0\":9}","trial_type":"survey-likert","trial_index":15,"time_elapsed":54678,"internal_node_id":"0.0-5.3-1.3","responseType":"finish","participantID":"q6s6mscwyo2pbm5xc1kqgf44kmy0kj97","conditionNumber":"unexpected"},{"rt":null,"stimulus":"\u003cp\u003eNow we will show you another configuration of the anagram\u003c/p\u003e","key_press":null,"trial_type":"html-keyboard-response","trial_index":16,"time_elapsed":54681,"internal_node_id":"0.0-5.3-2.3","responseType":"finish","participantID":"q6s6mscwyo2pbm5xc1kqgf44kmy0kj97","conditionNumber":"unexpected"},{"rt":2189,"responses":"{\"Q0\":0}","trial_type":"survey-likert","trial_index":17,"time_elapsed":56871,"internal_node_id":"0.0-6.0","responseType":"finish","participantID":"q6s6mscwyo2pbm5xc1kqgf44kmy0kj97","conditionNumber":"unexpected"},{"rt":4293,"stimulus":"\u003ch1 id=\"instructions\"\u003eInstructions\u003c/h1\u003e\n\u003cp\u003eThank you for your attention so far. Now, you will be presented with the second anagram which you have to solve. \u003c/p\u003e\n\u003cp\u003eThis time, we will present the anagram to you in \u003cstrong\u003eseven\u003c/strong\u003e different configurations. If you have not figured the answer to the anagram by then, then at the \u003cstrong\u003eeighth\u003c/strong\u003e time, we will show a much \u003cstrong\u003eeasier\u003c/strong\u003e configuration of that anagram to you. \u003c/p\u003e\n\u003cp\u003ePlease press the \u003cstrong\u003e'g' key\u003c/strong\u003e to continue once you understand.\u003c/p\u003e","key_press":71,"trial_type":"html-keyboard-response","trial_index":18,"time_elapsed":61164,"internal_node_id":"0.0-7.0","responseType":"finish","participantID":"q6s6mscwyo2pbm5xc1kqgf44kmy0kj97","conditionNumber":"unexpected"},{"rt":4060,"responses":"{\"Q0\":\"7 configurations\"}","trial_type":"survey-multi-choice","trial_index":19,"time_elapsed":65226,"internal_node_id":"0.0-8.0","responseType":"finish","participantID":"q6s6mscwyo2pbm5xc1kqgf44kmy0kj97","conditionNumber":"unexpected"},{"rt":null,"stimulus":"\u003cp\u003e\u003ch1\u003eHNTYUGA\u003c/h1\u003e\u003c/p\u003e","key_press":null,"trial_type":"html-keyboard-response","trial_index":20,"time_elapsed":69227,"internal_node_id":"0.0-9.0-0.0","responseType":"finish","participantID":"q6s6mscwyo2pbm5xc1kqgf44kmy0kj97","conditionNumber":"unexpected"},{"rt":2738,"responses":"{\"Q0\":1}","trial_type":"survey-likert","trial_index":21,"time_elapsed":71966,"internal_node_id":"0.0-9.0-1.0","responseType":"finish","participantID":"q6s6mscwyo2pbm5xc1kqgf44kmy0kj97","conditionNumber":"unexpected"},{"rt":null,"stimulus":"\u003cp\u003eNow we will show you another configuration of the anagram\u003c/p\u003e","key_press":null,"trial_type":"html-keyboard-response","trial_index":22,"time_elapsed":77970,"internal_node_id":"0.0-9.0-2.0","responseType":"finish","participantID":"q6s6mscwyo2pbm5xc1kqgf44kmy0kj97","conditionNumber":"unexpected"},{"rt":null,"stimulus":"\u003cp\u003e\u003ch1\u003eUHNGYAT\u003c/h1\u003e\u003c/p\u003e","key_press":null,"trial_type":"html-keyboard-response","trial_index":23,"time_elapsed":81971,"internal_node_id":"0.0-9.1-0.1","responseType":"finish","participantID":"q6s6mscwyo2pbm5xc1kqgf44kmy0kj97","conditionNumber":"unexpected"},{"rt":2328,"responses":"{\"Q0\":1}","trial_type":"survey-likert","trial_index":24,"time_elapsed":84301,"internal_node_id":"0.0-9.1-1.1","responseType":"finish","participantID":"q6s6mscwyo2pbm5xc1kqgf44kmy0kj97","conditionNumber":"unexpected"},{"rt":null,"stimulus":"\u003cp\u003eNow we will show you another configuration of the anagram\u003c/p\u003e","key_press":null,"trial_type":"html-keyboard-response","trial_index":25,"time_elapsed":90303,"internal_node_id":"0.0-9.1-2.1","responseType":"finish","participantID":"q6s6mscwyo2pbm5xc1kqgf44kmy0kj97","conditionNumber":"unexpected"},{"rt":null,"stimulus":"\u003cp\u003e\u003ch1\u003eYHANUTG\u003c/h1\u003e\u003c/p\u003e","key_press":null,"trial_type":"html-keyboard-response","trial_index":26,"time_elapsed":94305,"internal_node_id":"0.0-9.2-0.2","responseType":"finish","participantID":"q6s6mscwyo2pbm5xc1kqgf44kmy0kj97","conditionNumber":"unexpected"},{"rt":1599,"responses":"{\"Q0\":1}","trial_type":"survey-likert","trial_index":27,"time_elapsed":95906,"internal_node_id":"0.0-9.2-1.2","responseType":"finish","participantID":"q6s6mscwyo2pbm5xc1kqgf44kmy0kj97","conditionNumber":"unexpected"},{"rt":null,"stimulus":"\u003cp\u003eNow we will show you another configuration of the anagram\u003c/p\u003e","key_press":null,"trial_type":"html-keyboard-response","trial_index":28,"time_elapsed":101909,"internal_node_id":"0.0-9.2-2.2","responseType":"finish","participantID":"q6s6mscwyo2pbm5xc1kqgf44kmy0kj97","conditionNumber":"unexpected"},{"rt":null,"stimulus":"\u003cp\u003e\u003ch1\u003eNAUHGTY\u003c/h1\u003e\u003c/p\u003e","key_press":null,"trial_type":"html-keyboard-response","trial_index":29,"time_elapsed":105910,"internal_node_id":"0.0-9.3-0.3","responseType":"finish","participantID":"q6s6mscwyo2pbm5xc1kqgf44kmy0kj97","conditionNumber":"unexpected"},{"rt":1387,"responses":"{\"Q0\":9}","trial_type":"survey-likert","trial_index":30,"time_elapsed":107299,"internal_node_id":"0.0-9.3-1.3","responseType":"finish","participantID":"q6s6mscwyo2pbm5xc1kqgf44kmy0kj97","conditionNumber":"unexpected"},{"rt":null,"stimulus":"\u003cp\u003eNow we will show you another configuration of the anagram\u003c/p\u003e","key_press":null,"trial_type":"html-keyboard-response","trial_index":31,"time_elapsed":107302,"internal_node_id":"0.0-9.3-2.3","responseType":"finish","participantID":"q6s6mscwyo2pbm5xc1kqgf44kmy0kj97","conditionNumber":"unexpected"},{"rt":1899,"responses":"{\"Q0\":9}","trial_type":"survey-likert","trial_index":32,"time_elapsed":109202,"internal_node_id":"0.0-10.0","responseType":"finish","participantID":"q6s6mscwyo2pbm5xc1kqgf44kmy0kj97","conditionNumber":"unexpected"}],"__v":0}
{"_id":{"$oid":"5d6d9fa221e1970004d4b89c"},"data":{"responseType":"start","participantID":"luqt1kzv2sgqlhdxqy7jp0296zph04nq","conditionNumber":"expected"},"__v":0}
{"_id":{"$oid":"5d6d9fad21e1970004d4b89d"},"data":{"responseType":"start","participantID":"hf7z6jscavxqbc4f8qljl4y0z1q8jxn6","conditionNumber":"expected"},"__v":0}
{"_id":{"$oid":"5d6d9fb721e1970004d4b89e"},"data":{"responseType":"start","participantID":"8uolkxhemss7wahanq29q2111mpz0s5q","conditionNumber":"unexpected"},"__v":0}
{"_id":{"$oid":"5d6da05f21e1970004d4b89f"},"data":[{"rt":6865,"responses":"{\"Q0\":\" I consent to participate \"}","trial_type":"survey-multi-choice","trial_index":0,"time_elapsed":6870,"internal_node_id":"0.0-0.0","responseType":"finish","participantID":"luqt1kzv2sgqlhdxqy7jp0296zph04nq","conditionNumber":"expected"},{"trial_type":"call-function","trial_index":1,"time_elapsed":6874,"internal_node_id":"0.0-1.0","responseType":"finish","participantID":"luqt1kzv2sgqlhdxqy7jp0296zph04nq","conditionNumber":"expected"},{"rt":9365,"stimulus":"\u003ch1 id=\"welcome\"\u003eWelcome\u003c/h1\u003e\n\u003cp\u003eWelcome to the Experiment! In this experiment, we will give you two \u003cem\u003eanagrams\u003c/em\u003e to solve. An \u003cem\u003eanagram\u003c/em\u003e is simply a word or phrase formed by rearranging the letters of another word or phrase. For example:\u003c/p\u003e\n\u003cul\u003e\n\u003cli\u003e\u003cstrong\u003ePOKER\u003c/strong\u003e is an anagram of \u003cstrong\u003ePKOER\u003c/strong\u003e\u003c/li\u003e\n\u003cli\u003e\u003cstrong\u003ePIKE\u003c/strong\u003e is an anagram of \u003cstrong\u003eKEPI\u003c/strong\u003e\u003c/li\u003e\n\u003c/ul\u003e\n\u003cp\u003eWe kindly request for your full attention for the experiment and ask you to refrain from using Google or other search engines. \u003c/p\u003e\n\u003cp\u003ePlease press the \u003cstrong\u003e'n' key\u003c/strong\u003e to continue once you understand.\u003c/p\u003e","key_press":78,"trial_type":"html-keyboard-response","trial_index":2,"time_elapsed":16241,"internal_node_id":"0.0-2.0","responseType":"finish","participantID":"luqt1kzv2sgqlhdxqy7jp0296zph04nq","conditionNumber":"expected"},{"rt":13299,"stimulus":"\u003ch1 id=\"instructions\"\u003eInstructions\u003c/h1\u003e\n\u003cp\u003eWhen you click next, you will be presented with an anagram that will be displayed for 4 seconds. Following that, the \u003cem\u003esame\u003c/em\u003e anagram will be presented to you again in a \u003cem\u003edifferent\u003c/em\u003e configuration for 4 seconds. \u003c/p\u003e\n\u003cp\u003eIn total, we will present the anagram to you in \u003cstrong\u003ethree\u003c/strong\u003e different configurations. If you have not figured the answer to the anagram by then, then at the \u003cstrong\u003efourth\u003c/strong\u003e time, we will show a much \u003cstrong\u003eeasier\u003c/strong\u003e configuration of that anagram to you. \u003c/p\u003e\n\u003cp\u003eAs an example, you may be presented with random configurations such as: \u003cstrong\u003eONLEM\u003c/strong\u003e, \u003cstrong\u003eMOELN\u003c/strong\u003e, \u003cstrong\u003eNMEOL\u003c/strong\u003e, and finally the easier configuration, \u003cstrong\u003eLMEON\u003c/strong\u003e. Here, these configurations come from the same anagram, LEMON and your goal was figuring out the underlying anagram. \u003c/p\u003e\n\u003cp\u003ePlease press the \u003cstrong\u003e'm' key\u003c/strong\u003e to continue once you understand.\u003c/p\u003e","key_press":77,"trial_type":"html-keyboard-response","trial_index":3,"time_elapsed":29540,"internal_node_id":"0.0-3.0","responseType":"finish","participantID":"luqt1kzv2sgqlhdxqy7jp0296zph04nq","conditionNumber":"expected"},{"rt":6409,"stimulus":"\u003ch1 id=\"instructions\"\u003eInstructions\u003c/h1\u003e\n\u003cp\u003eNow, we will present you the first anagram which you have to solve. We will present the anagram to you in \u003cstrong\u003ethree\u003c/strong\u003e different configurations. If you have not figured the answer to the anagram by then, then we will show a much \u003cstrong\u003eeasier\u003c/strong\u003e configuration to you in the \u003cstrong\u003efourth\u003c/strong\u003e iteration. \u003c/p\u003e\n\u003cp\u003ePlease press the \u003cstrong\u003e'b' key\u003c/strong\u003e to continue.\u003c/p\u003e","key_press":66,"trial_type":"html-keyboard-response","trial_index":4,"time_elapsed":35949,"internal_node_id":"0.0-4.0","responseType":"finish","participantID":"luqt1kzv2sgqlhdxqy7jp0296zph04nq","conditionNumber":"expected"},{"rt":null,"stimulus":"\u003cp\u003e\u003ch1\u003eOHEPN\u003c/h1\u003e\u003c/p\u003e","key_press":null,"trial_type":"html-keyboard-response","trial_index":5,"time_elapsed":39953,"internal_node_id":"0.0-5.0-0.0","responseType":"finish","participantID":"luqt1kzv2sgqlhdxqy7jp0296zph04nq","conditionNumber":"expected"},{"rt":3464,"responses":"{\"Q0\":9}","trial_type":"survey-likert","trial_index":6,"time_elapsed":43421,"internal_node_id":"0.0-5.0-1.0","responseType":"finish","participantID":"luqt1kzv2sgqlhdxqy7jp0296zph04nq","conditionNumber":"expected"},{"rt":null,"stimulus":"\u003cp\u003eNow we will show you another configuration of the anagram\u003c/p\u003e","key_press":null,"trial_type":"html-keyboard-response","trial_index":7,"time_elapsed":49426,"internal_node_id":"0.0-5.0-2.0","responseType":"finish","participantID":"luqt1kzv2sgqlhdxqy7jp0296zph04nq","conditionNumber":"expected"},{"rt":null,"stimulus":"\u003cp\u003e\u003ch1\u003eEPHNO\u003c/h1\u003e\u003c/p\u003e","key_press":null,"trial_type":"html-keyboard-response","trial_index":8,"time_elapsed":53431,"internal_node_id":"0.0-5.1-0.1","responseType":"finish","participantID":"luqt1kzv2sgqlhdxqy7jp0296zph04nq","conditionNumber":"expected"},{"rt":3873,"responses":"{\"Q0\":9}","trial_type":"survey-likert","trial_index":9,"time_elapsed":57309,"internal_node_id":"0.0-5.1-1.1","responseType":"finish","participantID":"luqt1kzv2sgqlhdxqy7jp0296zph04nq","conditionNumber":"expected"},{"rt":null,"stimulus":"\u003cp\u003eNow we will show you another configuration of the anagram\u003c/p\u003e","key_press":null,"trial_type":"html-keyboard-response","trial_index":10,"time_elapsed":63311,"internal_node_id":"0.0-5.1-2.1","responseType":"finish","participantID":"luqt1kzv2sgqlhdxqy7jp0296zph04nq","conditionNumber":"expected"},{"rt":null,"stimulus":"\u003cp\u003e\u003ch1\u003eHNPEO\u003c/h1\u003e\u003c/p\u003e","key_press":null,"trial_type":"html-keyboard-response","trial_index":11,"time_elapsed":67312,"internal_node_id":"0.0-5.2-0.2","responseType":"finish","participantID":"luqt1kzv2sgqlhdxqy7jp0296zph04nq","conditionNumber":"expected"},{"rt":2435,"responses":"{\"Q0\":9}","trial_type":"survey-likert","trial_index":12,"time_elapsed":69749,"internal_node_id":"0.0-5.2-1.2","responseType":"finish","participantID":"luqt1kzv2sgqlhdxqy7jp0296zph04nq","conditionNumber":"expected"},{"rt":null,"stimulus":"\u003cp\u003eWe will now show you a much \u003cb\u003eeasier\u003c/b\u003e configuration of this anagram\u003c/p\u003e","key_press":null,"trial_type":"html-keyboard-response","trial_index":13,"time_elapsed":75751,"internal_node_id":"0.0-5.2-2.2","responseType":"finish","participantID":"luqt1kzv2sgqlhdxqy7jp0296zph04nq","conditionNumber":"expected"},{"rt":null,"stimulus":"\u003cp\u003e\u003ch1\u003ePHNOE\u003c/h1\u003e\u003c/p\u003e","key_press":null,"trial_type":"html-keyboard-response","trial_index":14,"time_elapsed":79753,"internal_node_id":"0.0-5.3-0.3","responseType":"finish","participantID":"luqt1kzv2sgqlhdxqy7jp0296zph04nq","conditionNumber":"expected"},{"rt":1940,"responses":"{\"Q0\":9}","trial_type":"survey-likert","trial_index":15,"time_elapsed":81693,"internal_node_id":"0.0-5.3-1.3","responseType":"finish","participantID":"luqt1kzv2sgqlhdxqy7jp0296zph04nq","conditionNumber":"expected"},{"rt":null,"stimulus":"\u003cp\u003eNow we will show you another configuration of the anagram\u003c/p\u003e","key_press":null,"trial_type":"html-keyboard-response","trial_index":16,"time_elapsed":81696,"internal_node_id":"0.0-5.3-2.3","responseType":"finish","participantID":"luqt1kzv2sgqlhdxqy7jp0296zph04nq","conditionNumber":"expected"},{"rt":3523,"responses":"{\"Q0\":0}","trial_type":"survey-likert","trial_index":17,"time_elapsed":85221,"internal_node_id":"0.0-6.0","responseType":"finish","participantID":"luqt1kzv2sgqlhdxqy7jp0296zph04nq","conditionNumber":"expected"},{"rt":8414,"stimulus":"\u003ch1 id=\"instructions\"\u003eInstructions\u003c/h1\u003e\n\u003cp\u003eThank you for your attention so far. Now, you will be presented with the second anagram which you have to solve. \u003c/p\u003e\n\u003cp\u003eThis time, we will present the anagram to you in \u003cstrong\u003eseven\u003c/strong\u003e different configurations. If you have not figured the answer to the anagram by then, then at the \u003cstrong\u003eeighth\u003c/strong\u003e time, we will show a much \u003cstrong\u003eeasier\u003c/strong\u003e configuration of that anagram to you. \u003c/p\u003e\n\u003cp\u003ePlease press the \u003cstrong\u003e'g' key\u003c/strong\u003e to continue once you understand.\u003c/p\u003e","key_press":71,"trial_type":"html-keyboard-response","trial_index":18,"time_elapsed":93636,"internal_node_id":"0.0-7.0","responseType":"finish","participantID":"luqt1kzv2sgqlhdxqy7jp0296zph04nq","conditionNumber":"expected"},{"rt":5455,"responses":"{\"Q0\":\"7 configurations\"}","trial_type":"survey-multi-choice","trial_index":19,"time_elapsed":99093,"internal_node_id":"0.0-8.0","responseType":"finish","participantID":"luqt1kzv2sgqlhdxqy7jp0296zph04nq","conditionNumber":"expected"},{"rt":null,"stimulus":"\u003cp\u003e\u003ch1\u003eHNTYUGA\u003c/h1\u003e\u003c/p\u003e","key_press":null,"trial_type":"html-keyboard-response","trial_index":20,"time_elapsed":103096,"internal_node_id":"0.0-9.0-0.0","responseType":"finish","participantID":"luqt1kzv2sgqlhdxqy7jp0296zph04nq","conditionNumber":"expected"},{"rt":2106,"responses":"{\"Q0\":0}","trial_type":"survey-likert","trial_index":21,"time_elapsed":105205,"internal_node_id":"0.0-9.0-1.0","responseType":"finish","participantID":"luqt1kzv2sgqlhdxqy7jp0296zph04nq","conditionNumber":"expected"},{"rt":null,"stimulus":"\u003cp\u003eNow we will show you another configuration of the anagram\u003c/p\u003e","key_press":null,"trial_type":"html-keyboard-response","trial_index":22,"time_elapsed":111207,"internal_node_id":"0.0-9.0-2.0","responseType":"finish","participantID":"luqt1kzv2sgqlhdxqy7jp0296zph04nq","conditionNumber":"expected"},{"rt":null,"stimulus":"\u003cp\u003e\u003ch1\u003eUHNGYAT\u003c/h1\u003e\u003c/p\u003e","key_press":null,"trial_type":"html-keyboard-response","trial_index":23,"time_elapsed":115210,"internal_node_id":"0.0-9.1-0.1","responseType":"finish","participantID":"luqt1kzv2sgqlhdxqy7jp0296zph04nq","conditionNumber":"expected"},{"rt":2249,"responses":"{\"Q0\":0}","trial_type":"survey-likert","trial_index":24,"time_elapsed":117460,"internal_node_id":"0.0-9.1-1.1","responseType":"finish","participantID":"luqt1kzv2sgqlhdxqy7jp0296zph04nq","conditionNumber":"expected"},{"rt":null,"stimulus":"\u003cp\u003eNow we will show you another configuration of the anagram\u003c/p\u003e","key_press":null,"trial_type":"html-keyboard-response","trial_index":25,"time_elapsed":123462,"internal_node_id":"0.0-9.1-2.1","responseType":"finish","participantID":"luqt1kzv2sgqlhdxqy7jp0296zph04nq","conditionNumber":"expected"},{"rt":null,"stimulus":"\u003cp\u003e\u003ch1\u003eYHANUTG\u003c/h1\u003e\u003c/p\u003e","key_press":null,"trial_type":"html-keyboard-response","trial_index":26,"time_elapsed":127464,"internal_node_id":"0.0-9.2-0.2","responseType":"finish","participantID":"luqt1kzv2sgqlhdxqy7jp0296zph04nq","conditionNumber":"expected"},{"rt":2715,"responses":"{\"Q0\":0}","trial_type":"survey-likert","trial_index":27,"time_elapsed":130180,"internal_node_id":"0.0-9.2-1.2","responseType":"finish","participantID":"luqt1kzv2sgqlhdxqy7jp0296zph04nq","conditionNumber":"expected"},{"rt":null,"stimulus":"\u003cp\u003eNow we will show you another configuration of the anagram\u003c/p\u003e","key_press":null,"trial_type":"html-keyboard-response","trial_index":28,"time_elapsed":136182,"internal_node_id":"0.0-9.2-2.2","responseType":"finish","participantID":"luqt1kzv2sgqlhdxqy7jp0296zph04nq","conditionNumber":"expected"},{"rt":null,"stimulus":"\u003cp\u003e\u003ch1\u003eATGNYHU\u003c/h1\u003e\u003c/p\u003e","key_press":null,"trial_type":"html-keyboard-response","trial_index":29,"time_elapsed":140184,"internal_node_id":"0.0-9.3-0.3","responseType":"finish","participantID":"luqt1kzv2sgqlhdxqy7jp0296zph04nq","conditionNumber":"expected"},{"rt":2643,"responses":"{\"Q0\":0}","trial_type":"survey-likert","trial_index":30,"time_elapsed":142829,"internal_node_id":"0.0-9.3-1.3","responseType":"finish","participantID":"luqt1kzv2sgqlhdxqy7jp0296zph04nq","conditionNumber":"expected"},{"rt":null,"stimulus":"\u003cp\u003eNow we will show you another configuration of the anagram\u003c/p\u003e","key_press":null,"trial_type":"html-keyboard-response","trial_index":31,"time_elapsed":148831,"internal_node_id":"0.0-9.3-2.3","responseType":"finish","participantID":"luqt1kzv2sgqlhdxqy7jp0296zph04nq","conditionNumber":"expected"},{"rt":null,"stimulus":"\u003cp\u003e\u003ch1\u003eGANYTHU\u003c/h1\u003e\u003c/p\u003e","key_press":null,"trial_type":"html-keyboard-response","trial_index":32,"time_elapsed":152833,"internal_node_id":"0.0-9.4-0.4","responseType":"finish","participantID":"luqt1kzv2sgqlhdxqy7jp0296zph04nq","conditionNumber":"expected"},{"rt":2738,"responses":"{\"Q0\":0}","trial_type":"survey-likert","trial_index":33,"time_elapsed":155572,"internal_node_id":"0.0-9.4-1.4","responseType":"finish","participantID":"luqt1kzv2sgqlhdxqy7jp0296zph04nq","conditionNumber":"expected"},{"rt":null,"stimulus":"\u003cp\u003eNow we will show you another configuration of the anagram\u003c/p\u003e","key_press":null,"trial_type":"html-keyboard-response","trial_index":34,"time_elapsed":161576,"internal_node_id":"0.0-9.4-2.4","responseType":"finish","participantID":"luqt1kzv2sgqlhdxqy7jp0296zph04nq","conditionNumber":"expected"},{"rt":null,"stimulus":"\u003cp\u003e\u003ch1\u003eTHANYGU\u003c/h1\u003e\u003c/p\u003e","key_press":null,"trial_type":"html-keyboard-response","trial_index":35,"time_elapsed":165578,"internal_node_id":"0.0-9.5-0.5","responseType":"finish","participantID":"luqt1kzv2sgqlhdxqy7jp0296zph04nq","conditionNumber":"expected"},{"rt":2737,"responses":"{\"Q0\":0}","trial_type":"survey-likert","trial_index":36,"time_elapsed":168316,"internal_node_id":"0.0-9.5-1.5","responseType":"finish","participantID":"luqt1kzv2sgqlhdxqy7jp0296zph04nq","conditionNumber":"expected"},{"rt":null,"stimulus":"\u003cp\u003eNow we will show you another configuration of the anagram\u003c/p\u003e","key_press":null,"trial_type":"html-keyboard-response","trial_index":37,"time_elapsed":174317,"internal_node_id":"0.0-9.5-2.5","responseType":"finish","participantID":"luqt1kzv2sgqlhdxqy7jp0296zph04nq","conditionNumber":"expected"},{"rt":null,"stimulus":"\u003cp\u003e\u003ch1\u003eAGNYUTH\u003c/h1\u003e\u003c/p\u003e","key_press":null,"trial_type":"html-keyboard-response","trial_index":38,"time_elapsed":178320,"internal_node_id":"0.0-9.6-0.6","responseType":"finish","participantID":"luqt1kzv2sgqlhdxqy7jp0296zph04nq","conditionNumber":"expected"},{"rt":2660,"responses":"{\"Q0\":0}","trial_type":"survey-likert","trial_index":39,"time_elapsed":180980,"internal_node_id":"0.0-9.6-1.6","responseType":"finish","participantID":"luqt1kzv2sgqlhdxqy7jp0296zph04nq","conditionNumber":"expected"},{"rt":null,"stimulus":"\u003cp\u003eWe will now show you a much \u003cb\u003eeasier\u003c/b\u003e configuration of this anagram\u003c/p\u003e","key_press":null,"trial_type":"html-keyboard-response","trial_index":40,"time_elapsed":186983,"internal_node_id":"0.0-9.6-2.6","responseType":"finish","participantID":"luqt1kzv2sgqlhdxqy7jp0296zph04nq","conditionNumber":"expected"},{"rt":null,"stimulus":"\u003cp\u003e\u003ch1\u003eNAUHGTY\u003c/h1\u003e\u003c/p\u003e","key_press":null,"trial_type":"html-keyboard-response","trial_index":41,"time_elapsed":190986,"internal_node_id":"0.0-9.7-0.7","responseType":"finish","participantID":"luqt1kzv2sgqlhdxqy7jp0296zph04nq","conditionNumber":"expected"},{"rt":2440,"responses":"{\"Q0\":9}","trial_type":"survey-likert","trial_index":42,"time_elapsed":193428,"internal_node_id":"0.0-9.7-1.7","responseType":"finish","participantID":"luqt1kzv2sgqlhdxqy7jp0296zph04nq","conditionNumber":"expected"},{"rt":null,"stimulus":"\u003cp\u003eNow we will show you another configuration of the anagram\u003c/p\u003e","key_press":null,"trial_type":"html-keyboard-response","trial_index":43,"time_elapsed":193431,"internal_node_id":"0.0-9.7-2.7","responseType":"finish","participantID":"luqt1kzv2sgqlhdxqy7jp0296zph04nq","conditionNumber":"expected"},{"rt":2364,"responses":"{\"Q0\":9}","trial_type":"survey-likert","trial_index":44,"time_elapsed":195796,"internal_node_id":"0.0-10.0","responseType":"finish","participantID":"luqt1kzv2sgqlhdxqy7jp0296zph04nq","conditionNumber":"expected"}],"__v":0}
{"_id":{"$oid":"5d6da07021e1970004d4b8a0"},"data":[{"rt":4231,"responses":"{\"Q0\":\" I consent to participate \"}","trial_type":"survey-multi-choice","trial_index":0,"time_elapsed":4235,"internal_node_id":"0.0-0.0","responseType":"finish","participantID":"8uolkxhemss7wahanq29q2111mpz0s5q","conditionNumber":"unexpected"},{"trial_type":"call-function","trial_index":1,"time_elapsed":4238,"internal_node_id":"0.0-1.0","responseType":"finish","participantID":"8uolkxhemss7wahanq29q2111mpz0s5q","conditionNumber":"unexpected"},{"rt":13852,"stimulus":"\u003ch1 id=\"welcome\"\u003eWelcome\u003c/h1\u003e\n\u003cp\u003eWelcome to the Experiment! In this experiment, we will give you two \u003cem\u003eanagrams\u003c/em\u003e to solve. An \u003cem\u003eanagram\u003c/em\u003e is simply a word or phrase formed by rearranging the letters of another word or phrase. For example:\u003c/p\u003e\n\u003cul\u003e\n\u003cli\u003e\u003cstrong\u003ePOKER\u003c/strong\u003e is an anagram of \u003cstrong\u003ePKOER\u003c/strong\u003e\u003c/li\u003e\n\u003cli\u003e\u003cstrong\u003ePIKE\u003c/strong\u003e is an anagram of \u003cstrong\u003eKEPI\u003c/strong\u003e\u003c/li\u003e\n\u003c/ul\u003e\n\u003cp\u003eWe kindly request for your full attention for the experiment and ask you to refrain from using Google or other search engines. \u003c/p\u003e\n\u003cp\u003ePlease press the \u003cstrong\u003e'n' key\u003c/strong\u003e to continue once you understand.\u003c/p\u003e","key_press":78,"trial_type":"html-keyboard-response","trial_index":2,"time_elapsed":18090,"internal_node_id":"0.0-2.0","responseType":"finish","participantID":"8uolkxhemss7wahanq29q2111mpz0s5q","conditionNumber":"unexpected"},{"rt":22303,"stimulus":"\u003ch1 id=\"instructions\"\u003eInstructions\u003c/h1\u003e\n\u003cp\u003eWhen you click next, you will be presented with an anagram that will be displayed for 4 seconds. Following that, the \u003cem\u003esame\u003c/em\u003e anagram will be presented to you again in a \u003cem\u003edifferent\u003c/em\u003e configuration for 4 seconds. \u003c/p\u003e\n\u003cp\u003eIn total, we will present the anagram to you in \u003cstrong\u003ethree\u003c/strong\u003e different configurations. If you have not figured the answer to the anagram by then, then at the \u003cstrong\u003efourth\u003c/strong\u003e time, we will show a much \u003cstrong\u003eeasier\u003c/strong\u003e configuration of that anagram to you. \u003c/p\u003e\n\u003cp\u003eAs an example, you may be presented with random configurations such as: \u003cstrong\u003eONLEM\u003c/strong\u003e, \u003cstrong\u003eMOELN\u003c/strong\u003e, \u003cstrong\u003eNMEOL\u003c/strong\u003e, and finally the easier configuration, \u003cstrong\u003eLMEON\u003c/strong\u003e. Here, these configurations come from the same anagram, LEMON and your goal was figuring out the underlying anagram. \u003c/p\u003e\n\u003cp\u003ePlease press the \u003cstrong\u003e'm' key\u003c/strong\u003e to continue once you understand.\u003c/p\u003e","key_press":77,"trial_type":"html-keyboard-response","trial_index":3,"time_elapsed":40393,"internal_node_id":"0.0-3.0","responseType":"finish","participantID":"8uolkxhemss7wahanq29q2111mpz0s5q","conditionNumber":"unexpected"},{"rt":9823,"stimulus":"\u003ch1 id=\"instructions\"\u003eInstructions\u003c/h1\u003e\n\u003cp\u003eNow, we will present you the first anagram which you have to solve. We will present the anagram to you in \u003cstrong\u003ethree\u003c/strong\u003e different configurations. If you have not figured the answer to the anagram by then, then we will show a much \u003cstrong\u003eeasier\u003c/strong\u003e configuration to you in the \u003cstrong\u003efourth\u003c/strong\u003e iteration. \u003c/p\u003e\n\u003cp\u003ePlease press the \u003cstrong\u003e'b' key\u003c/strong\u003e to continue.\u003c/p\u003e","key_press":66,"trial_type":"html-keyboard-response","trial_index":4,"time_elapsed":50217,"internal_node_id":"0.0-4.0","responseType":"finish","participantID":"8uolkxhemss7wahanq29q2111mpz0s5q","conditionNumber":"unexpected"},{"rt":null,"stimulus":"\u003cp\u003e\u003ch1\u003eOHEPN\u003c/h1\u003e\u003c/p\u003e","key_press":null,"trial_type":"html-keyboard-response","trial_index":5,"time_elapsed":54218,"internal_node_id":"0.0-5.0-0.0","responseType":"finish","participantID":"8uolkxhemss7wahanq29q2111mpz0s5q","conditionNumber":"unexpected"},{"rt":4872,"responses":"{\"Q0\":5}","trial_type":"survey-likert","trial_index":6,"time_elapsed":59092,"internal_node_id":"0.0-5.0-1.0","responseType":"finish","participantID":"8uolkxhemss7wahanq29q2111mpz0s5q","conditionNumber":"unexpected"},{"rt":null,"stimulus":"\u003cp\u003eNow we will show you another configuration of the anagram\u003c/p\u003e","key_press":null,"trial_type":"html-keyboard-response","trial_index":7,"time_elapsed":65095,"internal_node_id":"0.0-5.0-2.0","responseType":"finish","participantID":"8uolkxhemss7wahanq29q2111mpz0s5q","conditionNumber":"unexpected"},{"rt":null,"stimulus":"\u003cp\u003e\u003ch1\u003eEPHNO\u003c/h1\u003e\u003c/p\u003e","key_press":null,"trial_type":"html-keyboard-response","trial_index":8,"time_elapsed":69097,"internal_node_id":"0.0-5.1-0.1","responseType":"finish","participantID":"8uolkxhemss7wahanq29q2111mpz0s5q","conditionNumber":"unexpected"},{"rt":2342,"responses":"{\"Q0\":9}","trial_type":"survey-likert","trial_index":9,"time_elapsed":71440,"internal_node_id":"0.0-5.1-1.1","responseType":"finish","participantID":"8uolkxhemss7wahanq29q2111mpz0s5q","conditionNumber":"unexpected"},{"rt":null,"stimulus":"\u003cp\u003eNow we will show you another configuration of the anagram\u003c/p\u003e","key_press":null,"trial_type":"html-keyboard-response","trial_index":10,"time_elapsed":77443,"internal_node_id":"0.0-5.1-2.1","responseType":"finish","participantID":"8uolkxhemss7wahanq29q2111mpz0s5q","conditionNumber":"unexpected"},{"rt":null,"stimulus":"\u003cp\u003e\u003ch1\u003eHNPEO\u003c/h1\u003e\u003c/p\u003e","key_press":null,"trial_type":"html-keyboard-response","trial_index":11,"time_elapsed":81444,"internal_node_id":"0.0-5.2-0.2","responseType":"finish","participantID":"8uolkxhemss7wahanq29q2111mpz0s5q","conditionNumber":"unexpected"},{"rt":3290,"responses":"{\"Q0\":9}","trial_type":"survey-likert","trial_index":12,"time_elapsed":84734,"internal_node_id":"0.0-5.2-1.2","responseType":"finish","participantID":"8uolkxhemss7wahanq29q2111mpz0s5q","conditionNumber":"unexpected"},{"rt":null,"stimulus":"\u003cp\u003eWe will now show you a much \u003cb\u003eeasier\u003c/b\u003e configuration of this anagram\u003c/p\u003e","key_press":null,"trial_type":"html-keyboard-response","trial_index":13,"time_elapsed":90735,"internal_node_id":"0.0-5.2-2.2","responseType":"finish","participantID":"8uolkxhemss7wahanq29q2111mpz0s5q","conditionNumber":"unexpected"},{"rt":null,"stimulus":"\u003cp\u003e\u003ch1\u003ePHNOE\u003c/h1\u003e\u003c/p\u003e","key_press":null,"trial_type":"html-keyboard-response","trial_index":14,"time_elapsed":94738,"internal_node_id":"0.0-5.3-0.3","responseType":"finish","participantID":"8uolkxhemss7wahanq29q2111mpz0s5q","conditionNumber":"unexpected"},{"rt":2032,"responses":"{\"Q0\":9}","trial_type":"survey-likert","trial_index":15,"time_elapsed":96770,"internal_node_id":"0.0-5.3-1.3","responseType":"finish","participantID":"8uolkxhemss7wahanq29q2111mpz0s5q","conditionNumber":"unexpected"},{"rt":null,"stimulus":"\u003cp\u003eNow we will show you another configuration of the anagram\u003c/p\u003e","key_press":null,"trial_type":"html-keyboard-response","trial_index":16,"time_elapsed":96772,"internal_node_id":"0.0-5.3-2.3","responseType":"finish","participantID":"8uolkxhemss7wahanq29q2111mpz0s5q","conditionNumber":"unexpected"},{"rt":13620,"responses":"{\"Q0\":0}","trial_type":"survey-likert","trial_index":17,"time_elapsed":110393,"internal_node_id":"0.0-6.0","responseType":"finish","participantID":"8uolkxhemss7wahanq29q2111mpz0s5q","conditionNumber":"unexpected"},{"rt":27495,"stimulus":"\u003ch1 id=\"instructions\"\u003eInstructions\u003c/h1\u003e\n\u003cp\u003eThank you for your attention so far. Now, you will be presented with the second anagram which you have to solve. \u003c/p\u003e\n\u003cp\u003eThis time, we will present the anagram to you in \u003cstrong\u003eseven\u003c/strong\u003e different configurations. If you have not figured the answer to the anagram by then, then at the \u003cstrong\u003eeighth\u003c/strong\u003e time, we will show a much \u003cstrong\u003eeasier\u003c/strong\u003e configuration of that anagram to you. \u003c/p\u003e\n\u003cp\u003ePlease press the \u003cstrong\u003e'g' key\u003c/strong\u003e to continue once you understand.\u003c/p\u003e","key_press":71,"trial_type":"html-keyboard-response","trial_index":18,"time_elapsed":137889,"internal_node_id":"0.0-7.0","responseType":"finish","participantID":"8uolkxhemss7wahanq29q2111mpz0s5q","conditionNumber":"unexpected"},{"rt":5779,"responses":"{\"Q0\":\"7 configurations\"}","trial_type":"survey-multi-choice","trial_index":19,"time_elapsed":143669,"internal_node_id":"0.0-8.0","responseType":"finish","participantID":"8uolkxhemss7wahanq29q2111mpz0s5q","conditionNumber":"unexpected"},{"rt":null,"stimulus":"\u003cp\u003e\u003ch1\u003eHNTYUGA\u003c/h1\u003e\u003c/p\u003e","key_press":null,"trial_type":"html-keyboard-response","trial_index":20,"time_elapsed":147672,"internal_node_id":"0.0-9.0-0.0","responseType":"finish","participantID":"8uolkxhemss7wahanq29q2111mpz0s5q","conditionNumber":"unexpected"},{"rt":2308,"responses":"{\"Q0\":1}","trial_type":"survey-likert","trial_index":21,"time_elapsed":149980,"internal_node_id":"0.0-9.0-1.0","responseType":"finish","participantID":"8uolkxhemss7wahanq29q2111mpz0s5q","conditionNumber":"unexpected"},{"rt":null,"stimulus":"\u003cp\u003eNow we will show you another configuration of the anagram\u003c/p\u003e","key_press":null,"trial_type":"html-keyboard-response","trial_index":22,"time_elapsed":155982,"internal_node_id":"0.0-9.0-2.0","responseType":"finish","participantID":"8uolkxhemss7wahanq29q2111mpz0s5q","conditionNumber":"unexpected"},{"rt":null,"stimulus":"\u003cp\u003e\u003ch1\u003eUHNGYAT\u003c/h1\u003e\u003c/p\u003e","key_press":null,"trial_type":"html-keyboard-response","trial_index":23,"time_elapsed":159986,"internal_node_id":"0.0-9.1-0.1","responseType":"finish","participantID":"8uolkxhemss7wahanq29q2111mpz0s5q","conditionNumber":"unexpected"},{"rt":1675,"responses":"{\"Q0\":1}","trial_type":"survey-likert","trial_index":24,"time_elapsed":161662,"internal_node_id":"0.0-9.1-1.1","responseType":"finish","participantID":"8uolkxhemss7wahanq29q2111mpz0s5q","conditionNumber":"unexpected"},{"rt":null,"stimulus":"\u003cp\u003eNow we will show you another configuration of the anagram\u003c/p\u003e","key_press":null,"trial_type":"html-keyboard-response","trial_index":25,"time_elapsed":167665,"internal_node_id":"0.0-9.1-2.1","responseType":"finish","participantID":"8uolkxhemss7wahanq29q2111mpz0s5q","conditionNumber":"unexpected"},{"rt":null,"stimulus":"\u003cp\u003e\u003ch1\u003eYHANUTG\u003c/h1\u003e\u003c/p\u003e","key_press":null,"trial_type":"html-keyboard-response","trial_index":26,"time_elapsed":171667,"internal_node_id":"0.0-9.2-0.2","responseType":"finish","participantID":"8uolkxhemss7wahanq29q2111mpz0s5q","conditionNumber":"unexpected"},{"rt":1822,"responses":"{\"Q0\":1}","trial_type":"survey-likert","trial_index":27,"time_elapsed":173491,"internal_node_id":"0.0-9.2-1.2","responseType":"finish","participantID":"8uolkxhemss7wahanq29q2111mpz0s5q","conditionNumber":"unexpected"},{"rt":null,"stimulus":"\u003cp\u003eNow we will show you another configuration of the anagram\u003c/p\u003e","key_press":null,"trial_type":"html-keyboard-response","trial_index":28,"time_elapsed":179492,"internal_node_id":"0.0-9.2-2.2","responseType":"finish","participantID":"8uolkxhemss7wahanq29q2111mpz0s5q","conditionNumber":"unexpected"},{"rt":null,"stimulus":"\u003cp\u003e\u003ch1\u003eNAUHGTY\u003c/h1\u003e\u003c/p\u003e","key_press":null,"trial_type":"html-keyboard-response","trial_index":29,"time_elapsed":183493,"internal_node_id":"0.0-9.3-0.3","responseType":"finish","participantID":"8uolkxhemss7wahanq29q2111mpz0s5q","conditionNumber":"unexpected"},{"rt":1831,"responses":"{\"Q0\":9}","trial_type":"survey-likert","trial_index":30,"time_elapsed":185325,"internal_node_id":"0.0-9.3-1.3","responseType":"finish","participantID":"8uolkxhemss7wahanq29q2111mpz0s5q","conditionNumber":"unexpected"},{"rt":null,"stimulus":"\u003cp\u003eNow we will show you another configuration of the anagram\u003c/p\u003e","key_press":null,"trial_type":"html-keyboard-response","trial_index":31,"time_elapsed":185327,"internal_node_id":"0.0-9.3-2.3","responseType":"finish","participantID":"8uolkxhemss7wahanq29q2111mpz0s5q","conditionNumber":"unexpected"},{"rt":3801,"responses":"{\"Q0\":9}","trial_type":"survey-likert","trial_index":32,"time_elapsed":189129,"internal_node_id":"0.0-10.0","responseType":"finish","participantID":"8uolkxhemss7wahanq29q2111mpz0s5q","conditionNumber":"unexpected"}],"__v":0}
{"_id":{"$oid":"5d6da09721e1970004d4b8a1"},"data":{"responseType":"start","participantID":"ry27kw1tpo53ea8p2zrzhuj8a3e0nl3g","conditionNumber":"expected"},"__v":0}
{"_id":{"$oid":"5d6da09821e1970004d4b8a2"},"data":{"responseType":"start","participantID":"5o55scdnuea4eykzox48hjyasyauancw","conditionNumber":"unexpected"},"__v":0}
{"_id":{"$oid":"5d6da09c21e1970004d4b8a3"},"data":[{"rt":7288,"responses":"{\"Q0\":\" I consent to participate \"}","trial_type":"survey-multi-choice","trial_index":0,"time_elapsed":7301,"internal_node_id":"0.0-0.0","responseType":"finish","participantID":"hf7z6jscavxqbc4f8qljl4y0z1q8jxn6","conditionNumber":"expected"},{"trial_type":"call-function","trial_index":1,"time_elapsed":7327,"internal_node_id":"0.0-1.0","responseType":"finish","participantID":"hf7z6jscavxqbc4f8qljl4y0z1q8jxn6","conditionNumber":"expected"},{"rt":22045,"stimulus":"\u003ch1 id=\"welcome\"\u003eWelcome\u003c/h1\u003e\n\u003cp\u003eWelcome to the Experiment! In this experiment, we will give you two \u003cem\u003eanagrams\u003c/em\u003e to solve. An \u003cem\u003eanagram\u003c/em\u003e is simply a word or phrase formed by rearranging the letters of another word or phrase. For example:\u003c/p\u003e\n\u003cul\u003e\n\u003cli\u003e\u003cstrong\u003ePOKER\u003c/strong\u003e is an anagram of \u003cstrong\u003ePKOER\u003c/strong\u003e\u003c/li\u003e\n\u003cli\u003e\u003cstrong\u003ePIKE\u003c/strong\u003e is an anagram of \u003cstrong\u003eKEPI\u003c/strong\u003e\u003c/li\u003e\n\u003c/ul\u003e\n\u003cp\u003eWe kindly request for your full attention for the experiment and ask you to refrain from using Google or other search engines. \u003c/p\u003e\n\u003cp\u003ePlease press the \u003cstrong\u003e'n' key\u003c/strong\u003e to continue once you understand.\u003c/p\u003e","key_press":78,"trial_type":"html-keyboard-response","trial_index":2,"time_elapsed":29375,"internal_node_id":"0.0-2.0","responseType":"finish","participantID":"hf7z6jscavxqbc4f8qljl4y0z1q8jxn6","conditionNumber":"expected"},{"rt":28478,"stimulus":"\u003ch1 id=\"instructions\"\u003eInstructions\u003c/h1\u003e\n\u003cp\u003eWhen you click next, you will be presented with an anagram that will be displayed for 4 seconds. Following that, the \u003cem\u003esame\u003c/em\u003e anagram will be presented to you again in a \u003cem\u003edifferent\u003c/em\u003e configuration for 4 seconds. \u003c/p\u003e\n\u003cp\u003eIn total, we will present the anagram to you in \u003cstrong\u003ethree\u003c/strong\u003e different configurations. If you have not figured the answer to the anagram by then, then at the \u003cstrong\u003efourth\u003c/strong\u003e time, we will show a much \u003cstrong\u003eeasier\u003c/strong\u003e configuration of that anagram to you. \u003c/p\u003e\n\u003cp\u003eAs an example, you may be presented with random configurations such as: \u003cstrong\u003eONLEM\u003c/strong\u003e, \u003cstrong\u003eMOELN\u003c/strong\u003e, \u003cstrong\u003eNMEOL\u003c/strong\u003e, and finally the easier configuration, \u003cstrong\u003eLMEON\u003c/strong\u003e. Here, these configurations come from the same anagram, LEMON and your goal was figuring out the underlying anagram. \u003c/p\u003e\n\u003cp\u003ePlease press the \u003cstrong\u003e'm' key\u003c/strong\u003e to continue once you understand.\u003c/p\u003e","key_press":77,"trial_type":"html-keyboard-response","trial_index":3,"time_elapsed":57854,"internal_node_id":"0.0-3.0","responseType":"finish","participantID":"hf7z6jscavxqbc4f8qljl4y0z1q8jxn6","conditionNumber":"expected"},{"rt":11875,"stimulus":"\u003ch1 id=\"instructions\"\u003eInstructions\u003c/h1\u003e\n\u003cp\u003eNow, we will present you the first anagram which you have to solve. We will present the anagram to you in \u003cstrong\u003ethree\u003c/strong\u003e different configurations. If you have not figured the answer to the anagram by then, then we will show a much \u003cstrong\u003eeasier\u003c/strong\u003e configuration to you in the \u003cstrong\u003efourth\u003c/strong\u003e iteration. \u003c/p\u003e\n\u003cp\u003ePlease press the \u003cstrong\u003e'b' key\u003c/strong\u003e to continue.\u003c/p\u003e","key_press":66,"trial_type":"html-keyboard-response","trial_index":4,"time_elapsed":69731,"internal_node_id":"0.0-4.0","responseType":"finish","participantID":"hf7z6jscavxqbc4f8qljl4y0z1q8jxn6","conditionNumber":"expected"},{"rt":null,"stimulus":"\u003cp\u003e\u003ch1\u003eOHEPN\u003c/h1\u003e\u003c/p\u003e","key_press":null,"trial_type":"html-keyboard-response","trial_index":5,"time_elapsed":73734,"internal_node_id":"0.0-5.0-0.0","responseType":"finish","participantID":"hf7z6jscavxqbc4f8qljl4y0z1q8jxn6","conditionNumber":"expected"},{"rt":7011,"responses":"{\"Q0\":3}","trial_type":"survey-likert","trial_index":6,"time_elapsed":80748,"internal_node_id":"0.0-5.0-1.0","responseType":"finish","participantID":"hf7z6jscavxqbc4f8qljl4y0z1q8jxn6","conditionNumber":"expected"},{"rt":null,"stimulus":"\u003cp\u003eNow we will show you another configuration of the anagram\u003c/p\u003e","key_press":null,"trial_type":"html-keyboard-response","trial_index":7,"time_elapsed":86760,"internal_node_id":"0.0-5.0-2.0","responseType":"finish","participantID":"hf7z6jscavxqbc4f8qljl4y0z1q8jxn6","conditionNumber":"expected"},{"rt":null,"stimulus":"\u003cp\u003e\u003ch1\u003eEPHNO\u003c/h1\u003e\u003c/p\u003e","key_press":null,"trial_type":"html-keyboard-response","trial_index":8,"time_elapsed":90764,"internal_node_id":"0.0-5.1-0.1","responseType":"finish","participantID":"hf7z6jscavxqbc4f8qljl4y0z1q8jxn6","conditionNumber":"expected"},{"rt":2412,"responses":"{\"Q0\":9}","trial_type":"survey-likert","trial_index":9,"time_elapsed":93178,"internal_node_id":"0.0-5.1-1.1","responseType":"finish","participantID":"hf7z6jscavxqbc4f8qljl4y0z1q8jxn6","conditionNumber":"expected"},{"rt":null,"stimulus":"\u003cp\u003eNow we will show you another configuration of the anagram\u003c/p\u003e","key_press":null,"trial_type":"html-keyboard-response","trial_index":10,"time_elapsed":99190,"internal_node_id":"0.0-5.1-2.1","responseType":"finish","participantID":"hf7z6jscavxqbc4f8qljl4y0z1q8jxn6","conditionNumber":"expected"},{"rt":null,"stimulus":"\u003cp\u003e\u003ch1\u003eHNPEO\u003c/h1\u003e\u003c/p\u003e","key_press":null,"trial_type":"html-keyboard-response","trial_index":11,"time_elapsed":103191,"internal_node_id":"0.0-5.2-0.2","responseType":"finish","participantID":"hf7z6jscavxqbc4f8qljl4y0z1q8jxn6","conditionNumber":"expected"},{"rt":2050,"responses":"{\"Q0\":9}","trial_type":"survey-likert","trial_index":12,"time_elapsed":105243,"internal_node_id":"0.0-5.2-1.2","responseType":"finish","participantID":"hf7z6jscavxqbc4f8qljl4y0z1q8jxn6","conditionNumber":"expected"},{"rt":null,"stimulus":"\u003cp\u003eWe will now show you a much \u003cb\u003eeasier\u003c/b\u003e configuration of this anagram\u003c/p\u003e","key_press":null,"trial_type":"html-keyboard-response","trial_index":13,"time_elapsed":111255,"internal_node_id":"0.0-5.2-2.2","responseType":"finish","participantID":"hf7z6jscavxqbc4f8qljl4y0z1q8jxn6","conditionNumber":"expected"},{"rt":null,"stimulus":"\u003cp\u003e\u003ch1\u003ePHNOE\u003c/h1\u003e\u003c/p\u003e","key_press":null,"trial_type":"html-keyboard-response","trial_index":14,"time_elapsed":115257,"internal_node_id":"0.0-5.3-0.3","responseType":"finish","participantID":"hf7z6jscavxqbc4f8qljl4y0z1q8jxn6","conditionNumber":"expected"},{"rt":1601,"responses":"{\"Q0\":9}","trial_type":"survey-likert","trial_index":15,"time_elapsed":116860,"internal_node_id":"0.0-5.3-1.3","responseType":"finish","participantID":"hf7z6jscavxqbc4f8qljl4y0z1q8jxn6","conditionNumber":"expected"},{"rt":null,"stimulus":"\u003cp\u003eNow we will show you another configuration of the anagram\u003c/p\u003e","key_press":null,"trial_type":"html-keyboard-response","trial_index":16,"time_elapsed":116873,"internal_node_id":"0.0-5.3-2.3","responseType":"finish","participantID":"hf7z6jscavxqbc4f8qljl4y0z1q8jxn6","conditionNumber":"expected"},{"rt":15267,"responses":"{\"Q0\":0}","trial_type":"survey-likert","trial_index":17,"time_elapsed":132142,"internal_node_id":"0.0-6.0","responseType":"finish","participantID":"hf7z6jscavxqbc4f8qljl4y0z1q8jxn6","conditionNumber":"expected"},{"rt":12189,"stimulus":"\u003ch1 id=\"instructions\"\u003eInstructions\u003c/h1\u003e\n\u003cp\u003eThank you for your attention so far. Now, you will be presented with the second anagram which you have to solve. \u003c/p\u003e\n\u003cp\u003eThis time, we will present the anagram to you in \u003cstrong\u003eseven\u003c/strong\u003e different configurations. If you have not figured the answer to the anagram by then, then at the \u003cstrong\u003eeighth\u003c/strong\u003e time, we will show a much \u003cstrong\u003eeasier\u003c/strong\u003e configuration of that anagram to you. \u003c/p\u003e\n\u003cp\u003ePlease press the \u003cstrong\u003e'g' key\u003c/strong\u003e to continue once you understand.\u003c/p\u003e","key_press":71,"trial_type":"html-keyboard-response","trial_index":18,"time_elapsed":144341,"internal_node_id":"0.0-7.0","responseType":"finish","participantID":"hf7z6jscavxqbc4f8qljl4y0z1q8jxn6","conditionNumber":"expected"},{"rt":5605,"responses":"{\"Q0\":\"7 configurations\"}","trial_type":"survey-multi-choice","trial_index":19,"time_elapsed":149952,"internal_node_id":"0.0-8.0","responseType":"finish","participantID":"hf7z6jscavxqbc4f8qljl4y0z1q8jxn6","conditionNumber":"expected"},{"rt":null,"stimulus":"\u003cp\u003e\u003ch1\u003eHNTYUGA\u003c/h1\u003e\u003c/p\u003e","key_press":null,"trial_type":"html-keyboard-response","trial_index":20,"time_elapsed":153964,"internal_node_id":"0.0-9.0-0.0","responseType":"finish","participantID":"hf7z6jscavxqbc4f8qljl4y0z1q8jxn6","conditionNumber":"expected"},{"rt":2304,"responses":"{\"Q0\":1}","trial_type":"survey-likert","trial_index":21,"time_elapsed":156270,"internal_node_id":"0.0-9.0-1.0","responseType":"finish","participantID":"hf7z6jscavxqbc4f8qljl4y0z1q8jxn6","conditionNumber":"expected"},{"rt":null,"stimulus":"\u003cp\u003eNow we will show you another configuration of the anagram\u003c/p\u003e","key_press":null,"trial_type":"html-keyboard-response","trial_index":22,"time_elapsed":162281,"internal_node_id":"0.0-9.0-2.0","responseType":"finish","participantID":"hf7z6jscavxqbc4f8qljl4y0z1q8jxn6","conditionNumber":"expected"},{"rt":null,"stimulus":"\u003cp\u003e\u003ch1\u003eUHNGYAT\u003c/h1\u003e\u003c/p\u003e","key_press":null,"trial_type":"html-keyboard-response","trial_index":23,"time_elapsed":166283,"internal_node_id":"0.0-9.1-0.1","responseType":"finish","participantID":"hf7z6jscavxqbc4f8qljl4y0z1q8jxn6","conditionNumber":"expected"},{"rt":2354,"responses":"{\"Q0\":1}","trial_type":"survey-likert","trial_index":24,"time_elapsed":168640,"internal_node_id":"0.0-9.1-1.1","responseType":"finish","participantID":"hf7z6jscavxqbc4f8qljl4y0z1q8jxn6","conditionNumber":"expected"},{"rt":null,"stimulus":"\u003cp\u003eNow we will show you another configuration of the anagram\u003c/p\u003e","key_press":null,"trial_type":"html-keyboard-response","trial_index":25,"time_elapsed":174652,"internal_node_id":"0.0-9.1-2.1","responseType":"finish","participantID":"hf7z6jscavxqbc4f8qljl4y0z1q8jxn6","conditionNumber":"expected"},{"rt":null,"stimulus":"\u003cp\u003e\u003ch1\u003eYHANUTG\u003c/h1\u003e\u003c/p\u003e","key_press":null,"trial_type":"html-keyboard-response","trial_index":26,"time_elapsed":178653,"internal_node_id":"0.0-9.2-0.2","responseType":"finish","participantID":"hf7z6jscavxqbc4f8qljl4y0z1q8jxn6","conditionNumber":"expected"},{"rt":2844,"responses":"{\"Q0\":1}","trial_type":"survey-likert","trial_index":27,"time_elapsed":181500,"internal_node_id":"0.0-9.2-1.2","responseType":"finish","participantID":"hf7z6jscavxqbc4f8qljl4y0z1q8jxn6","conditionNumber":"expected"},{"rt":null,"stimulus":"\u003cp\u003eNow we will show you another configuration of the anagram\u003c/p\u003e","key_press":null,"trial_type":"html-keyboard-response","trial_index":28,"time_elapsed":187511,"internal_node_id":"0.0-9.2-2.2","responseType":"finish","participantID":"hf7z6jscavxqbc4f8qljl4y0z1q8jxn6","conditionNumber":"expected"},{"rt":null,"stimulus":"\u003cp\u003e\u003ch1\u003eATGNYHU\u003c/h1\u003e\u003c/p\u003e","key_press":null,"trial_type":"html-keyboard-response","trial_index":29,"time_elapsed":191517,"internal_node_id":"0.0-9.3-0.3","responseType":"finish","participantID":"hf7z6jscavxqbc4f8qljl4y0z1q8jxn6","conditionNumber":"expected"},{"rt":1521,"responses":"{\"Q0\":1}","trial_type":"survey-likert","trial_index":30,"time_elapsed":193040,"internal_node_id":"0.0-9.3-1.3","responseType":"finish","participantID":"hf7z6jscavxqbc4f8qljl4y0z1q8jxn6","conditionNumber":"expected"},{"rt":null,"stimulus":"\u003cp\u003eNow we will show you another configuration of the anagram\u003c/p\u003e","key_press":null,"trial_type":"html-keyboard-response","trial_index":31,"time_elapsed":199051,"internal_node_id":"0.0-9.3-2.3","responseType":"finish","participantID":"hf7z6jscavxqbc4f8qljl4y0z1q8jxn6","conditionNumber":"expected"},{"rt":null,"stimulus":"\u003cp\u003e\u003ch1\u003eGANYTHU\u003c/h1\u003e\u003c/p\u003e","key_press":null,"trial_type":"html-keyboard-response","trial_index":32,"time_elapsed":203054,"internal_node_id":"0.0-9.4-0.4","responseType":"finish","participantID":"hf7z6jscavxqbc4f8qljl4y0z1q8jxn6","conditionNumber":"expected"},{"rt":1698,"responses":"{\"Q0\":0}","trial_type":"survey-likert","trial_index":33,"time_elapsed":204756,"internal_node_id":"0.0-9.4-1.4","responseType":"finish","participantID":"hf7z6jscavxqbc4f8qljl4y0z1q8jxn6","conditionNumber":"expected"},{"rt":null,"stimulus":"\u003cp\u003eNow we will show you another configuration of the anagram\u003c/p\u003e","key_press":null,"trial_type":"html-keyboard-response","trial_index":34,"time_elapsed":210768,"internal_node_id":"0.0-9.4-2.4","responseType":"finish","participantID":"hf7z6jscavxqbc4f8qljl4y0z1q8jxn6","conditionNumber":"expected"},{"rt":null,"stimulus":"\u003cp\u003e\u003ch1\u003eTHANYGU\u003c/h1\u003e\u003c/p\u003e","key_press":null,"trial_type":"html-keyboard-response","trial_index":35,"time_elapsed":214770,"internal_node_id":"0.0-9.5-0.5","responseType":"finish","participantID":"hf7z6jscavxqbc4f8qljl4y0z1q8jxn6","conditionNumber":"expected"},{"rt":2675,"responses":"{\"Q0\":0}","trial_type":"survey-likert","trial_index":36,"time_elapsed":217448,"internal_node_id":"0.0-9.5-1.5","responseType":"finish","participantID":"hf7z6jscavxqbc4f8qljl4y0z1q8jxn6","conditionNumber":"expected"},{"rt":null,"stimulus":"\u003cp\u003eNow we will show you another configuration of the anagram\u003c/p\u003e","key_press":null,"trial_type":"html-keyboard-response","trial_index":37,"time_elapsed":223461,"internal_node_id":"0.0-9.5-2.5","responseType":"finish","participantID":"hf7z6jscavxqbc4f8qljl4y0z1q8jxn6","conditionNumber":"expected"},{"rt":null,"stimulus":"\u003cp\u003e\u003ch1\u003eAGNYUTH\u003c/h1\u003e\u003c/p\u003e","key_press":null,"trial_type":"html-keyboard-response","trial_index":38,"time_elapsed":227464,"internal_node_id":"0.0-9.6-0.6","responseType":"finish","participantID":"hf7z6jscavxqbc4f8qljl4y0z1q8jxn6","conditionNumber":"expected"},{"rt":1635,"responses":"{\"Q0\":0}","trial_type":"survey-likert","trial_index":39,"time_elapsed":229102,"internal_node_id":"0.0-9.6-1.6","responseType":"finish","participantID":"hf7z6jscavxqbc4f8qljl4y0z1q8jxn6","conditionNumber":"expected"},{"rt":null,"stimulus":"\u003cp\u003eWe will now show you a much \u003cb\u003eeasier\u003c/b\u003e configuration of this anagram\u003c/p\u003e","key_press":null,"trial_type":"html-keyboard-response","trial_index":40,"time_elapsed":235114,"internal_node_id":"0.0-9.6-2.6","responseType":"finish","participantID":"hf7z6jscavxqbc4f8qljl4y0z1q8jxn6","conditionNumber":"expected"},{"rt":null,"stimulus":"\u003cp\u003e\u003ch1\u003eNAUHGTY\u003c/h1\u003e\u003c/p\u003e","key_press":null,"trial_type":"html-keyboard-response","trial_index":41,"time_elapsed":239116,"internal_node_id":"0.0-9.7-0.7","responseType":"finish","participantID":"hf7z6jscavxqbc4f8qljl4y0z1q8jxn6","conditionNumber":"expected"},{"rt":4117,"responses":"{\"Q0\":1}","trial_type":"survey-likert","trial_index":42,"time_elapsed":243236,"internal_node_id":"0.0-9.7-1.7","responseType":"finish","participantID":"hf7z6jscavxqbc4f8qljl4y0z1q8jxn6","conditionNumber":"expected"},{"rt":null,"stimulus":"\u003cp\u003eNow we will show you another configuration of the anagram\u003c/p\u003e","key_press":null,"trial_type":"html-keyboard-response","trial_index":43,"time_elapsed":243250,"internal_node_id":"0.0-9.7-2.7","responseType":"finish","participantID":"hf7z6jscavxqbc4f8qljl4y0z1q8jxn6","conditionNumber":"expected"},{"rt":2622,"responses":"{\"Q0\":9}","trial_type":"survey-likert","trial_index":44,"time_elapsed":245876,"internal_node_id":"0.0-10.0","responseType":"finish","participantID":"hf7z6jscavxqbc4f8qljl4y0z1q8jxn6","conditionNumber":"expected"}],"__v":0}
{"_id":{"$oid":"5d6da09d21e1970004d4b8a4"},"data":[{"rt":34998,"responses":"{\"Q0\":\" I consent to participate \"}","trial_type":"survey-multi-choice","trial_index":0,"time_elapsed":35010,"internal_node_id":"0.0-0.0","responseType":"finish","participantID":"g2q44dnghe30ote6jr3x77rz1waazyfo","conditionNumber":"expected"},{"trial_type":"call-function","trial_index":1,"time_elapsed":35019,"internal_node_id":"0.0-1.0","responseType":"finish","participantID":"g2q44dnghe30ote6jr3x77rz1waazyfo","conditionNumber":"expected"},{"rt":18844,"stimulus":"\u003ch1 id=\"welcome\"\u003eWelcome\u003c/h1\u003e\n\u003cp\u003eWelcome to the Experiment! In this experiment, we will give you two \u003cem\u003eanagrams\u003c/em\u003e to solve. An \u003cem\u003eanagram\u003c/em\u003e is simply a word or phrase formed by rearranging the letters of another word or phrase. For example:\u003c/p\u003e\n\u003cul\u003e\n\u003cli\u003e\u003cstrong\u003ePOKER\u003c/strong\u003e is an anagram of \u003cstrong\u003ePKOER\u003c/strong\u003e\u003c/li\u003e\n\u003cli\u003e\u003cstrong\u003ePIKE\u003c/strong\u003e is an anagram of \u003cstrong\u003eKEPI\u003c/strong\u003e\u003c/li\u003e\n\u003c/ul\u003e\n\u003cp\u003eWe kindly request for your full attention for the experiment and ask you to refrain from using Google or other search engines. \u003c/p\u003e\n\u003cp\u003ePlease press the \u003cstrong\u003e'n' key\u003c/strong\u003e to continue once you understand.\u003c/p\u003e","key_press":78,"trial_type":"html-keyboard-response","trial_index":2,"time_elapsed":53867,"internal_node_id":"0.0-2.0","responseType":"finish","participantID":"g2q44dnghe30ote6jr3x77rz1waazyfo","conditionNumber":"expected"},{"rt":27394,"stimulus":"\u003ch1 id=\"instructions\"\u003eInstructions\u003c/h1\u003e\n\u003cp\u003eWhen you click next, you will be presented with an anagram that will be displayed for 4 seconds. Following that, the \u003cem\u003esame\u003c/em\u003e anagram will be presented to you again in a \u003cem\u003edifferent\u003c/em\u003e configuration for 4 seconds. \u003c/p\u003e\n\u003cp\u003eIn total, we will present the anagram to you in \u003cstrong\u003ethree\u003c/strong\u003e different configurations. If you have not figured the answer to the anagram by then, then at the \u003cstrong\u003efourth\u003c/strong\u003e time, we will show a much \u003cstrong\u003eeasier\u003c/strong\u003e configuration of that anagram to you. \u003c/p\u003e\n\u003cp\u003eAs an example, you may be presented with random configurations such as: \u003cstrong\u003eONLEM\u003c/strong\u003e, \u003cstrong\u003eMOELN\u003c/strong\u003e, \u003cstrong\u003eNMEOL\u003c/strong\u003e, and finally the easier configuration, \u003cstrong\u003eLMEON\u003c/strong\u003e. Here, these configurations come from the same anagram, LEMON and your goal was figuring out the underlying anagram. \u003c/p\u003e\n\u003cp\u003ePlease press the \u003cstrong\u003e'm' key\u003c/strong\u003e to continue once you understand.\u003c/p\u003e","key_press":77,"trial_type":"html-keyboard-response","trial_index":3,"time_elapsed":81263,"internal_node_id":"0.0-3.0","responseType":"finish","participantID":"g2q44dnghe30ote6jr3x77rz1waazyfo","conditionNumber":"expected"},{"rt":8807,"stimulus":"\u003ch1 id=\"instructions\"\u003eInstructions\u003c/h1\u003e\n\u003cp\u003eNow, we will present you the first anagram which you have to solve. We will present the anagram to you in \u003cstrong\u003ethree\u003c/strong\u003e different configurations. If you have not figured the answer to the anagram by then, then we will show a much \u003cstrong\u003eeasier\u003c/strong\u003e configuration to you in the \u003cstrong\u003efourth\u003c/strong\u003e iteration. \u003c/p\u003e\n\u003cp\u003ePlease press the \u003cstrong\u003e'b' key\u003c/strong\u003e to continue.\u003c/p\u003e","key_press":66,"trial_type":"html-keyboard-response","trial_index":4,"time_elapsed":90071,"internal_node_id":"0.0-4.0","responseType":"finish","participantID":"g2q44dnghe30ote6jr3x77rz1waazyfo","conditionNumber":"expected"},{"rt":null,"stimulus":"\u003cp\u003e\u003ch1\u003eOHEPN\u003c/h1\u003e\u003c/p\u003e","key_press":null,"trial_type":"html-keyboard-response","trial_index":5,"time_elapsed":94074,"internal_node_id":"0.0-5.0-0.0","responseType":"finish","participantID":"g2q44dnghe30ote6jr3x77rz1waazyfo","conditionNumber":"expected"},{"rt":14116,"responses":"{\"Q0\":9}","trial_type":"survey-likert","trial_index":6,"time_elapsed":108193,"internal_node_id":"0.0-5.0-1.0","responseType":"finish","participantID":"g2q44dnghe30ote6jr3x77rz1waazyfo","conditionNumber":"expected"},{"rt":null,"stimulus":"\u003cp\u003eNow we will show you another configuration of the anagram\u003c/p\u003e","key_press":null,"trial_type":"html-keyboard-response","trial_index":7,"time_elapsed":114196,"internal_node_id":"0.0-5.0-2.0","responseType":"finish","participantID":"g2q44dnghe30ote6jr3x77rz1waazyfo","conditionNumber":"expected"},{"rt":null,"stimulus":"\u003cp\u003e\u003ch1\u003eEPHNO\u003c/h1\u003e\u003c/p\u003e","key_press":null,"trial_type":"html-keyboard-response","trial_index":8,"time_elapsed":118200,"internal_node_id":"0.0-5.1-0.1","responseType":"finish","participantID":"g2q44dnghe30ote6jr3x77rz1waazyfo","conditionNumber":"expected"},{"rt":5068,"responses":"{\"Q0\":9}","trial_type":"survey-likert","trial_index":9,"time_elapsed":123270,"internal_node_id":"0.0-5.1-1.1","responseType":"finish","participantID":"g2q44dnghe30ote6jr3x77rz1waazyfo","conditionNumber":"expected"},{"rt":null,"stimulus":"\u003cp\u003eNow we will show you another configuration of the anagram\u003c/p\u003e","key_press":null,"trial_type":"html-keyboard-response","trial_index":10,"time_elapsed":129272,"internal_node_id":"0.0-5.1-2.1","responseType":"finish","participantID":"g2q44dnghe30ote6jr3x77rz1waazyfo","conditionNumber":"expected"},{"rt":null,"stimulus":"\u003cp\u003e\u003ch1\u003eHNPEO\u003c/h1\u003e\u003c/p\u003e","key_press":null,"trial_type":"html-keyboard-response","trial_index":11,"time_elapsed":133275,"internal_node_id":"0.0-5.2-0.2","responseType":"finish","participantID":"g2q44dnghe30ote6jr3x77rz1waazyfo","conditionNumber":"expected"},{"rt":4325,"responses":"{\"Q0\":9}","trial_type":"survey-likert","trial_index":12,"time_elapsed":137601,"internal_node_id":"0.0-5.2-1.2","responseType":"finish","participantID":"g2q44dnghe30ote6jr3x77rz1waazyfo","conditionNumber":"expected"},{"rt":null,"stimulus":"\u003cp\u003eWe will now show you a much \u003cb\u003eeasier\u003c/b\u003e configuration of this anagram\u003c/p\u003e","key_press":null,"trial_type":"html-keyboard-response","trial_index":13,"time_elapsed":143605,"internal_node_id":"0.0-5.2-2.2","responseType":"finish","participantID":"g2q44dnghe30ote6jr3x77rz1waazyfo","conditionNumber":"expected"},{"rt":null,"stimulus":"\u003cp\u003e\u003ch1\u003ePHNOE\u003c/h1\u003e\u003c/p\u003e","key_press":null,"trial_type":"html-keyboard-response","trial_index":14,"time_elapsed":147608,"internal_node_id":"0.0-5.3-0.3","responseType":"finish","participantID":"g2q44dnghe30ote6jr3x77rz1waazyfo","conditionNumber":"expected"},{"rt":3259,"responses":"{\"Q0\":9}","trial_type":"survey-likert","trial_index":15,"time_elapsed":150870,"internal_node_id":"0.0-5.3-1.3","responseType":"finish","participantID":"g2q44dnghe30ote6jr3x77rz1waazyfo","conditionNumber":"expected"},{"rt":null,"stimulus":"\u003cp\u003eNow we will show you another configuration of the anagram\u003c/p\u003e","key_press":null,"trial_type":"html-keyboard-response","trial_index":16,"time_elapsed":150874,"internal_node_id":"0.0-5.3-2.3","responseType":"finish","participantID":"g2q44dnghe30ote6jr3x77rz1waazyfo","conditionNumber":"expected"},{"rt":20101,"responses":"{\"Q0\":0}","trial_type":"survey-likert","trial_index":17,"time_elapsed":170977,"internal_node_id":"0.0-6.0","responseType":"finish","participantID":"g2q44dnghe30ote6jr3x77rz1waazyfo","conditionNumber":"expected"},{"rt":10299,"stimulus":"\u003ch1 id=\"instructions\"\u003eInstructions\u003c/h1\u003e\n\u003cp\u003eThank you for your attention so far. Now, you will be presented with the second anagram which you have to solve. \u003c/p\u003e\n\u003cp\u003eThis time, we will present the anagram to you in \u003cstrong\u003eseven\u003c/strong\u003e different configurations. If you have not figured the answer to the anagram by then, then at the \u003cstrong\u003eeighth\u003c/strong\u003e time, we will show a much \u003cstrong\u003eeasier\u003c/strong\u003e configuration of that anagram to you. \u003c/p\u003e\n\u003cp\u003ePlease press the \u003cstrong\u003e'g' key\u003c/strong\u003e to continue once you understand.\u003c/p\u003e","key_press":71,"trial_type":"html-keyboard-response","trial_index":18,"time_elapsed":181278,"internal_node_id":"0.0-7.0","responseType":"finish","participantID":"g2q44dnghe30ote6jr3x77rz1waazyfo","conditionNumber":"expected"},{"rt":16611,"responses":"{\"Q0\":\"7 configurations\"}","trial_type":"survey-multi-choice","trial_index":19,"time_elapsed":197893,"internal_node_id":"0.0-8.0","responseType":"finish","participantID":"g2q44dnghe30ote6jr3x77rz1waazyfo","conditionNumber":"expected"},{"rt":null,"stimulus":"\u003cp\u003e\u003ch1\u003eHNTYUGA\u003c/h1\u003e\u003c/p\u003e","key_press":null,"trial_type":"html-keyboard-response","trial_index":20,"time_elapsed":201896,"internal_node_id":"0.0-9.0-0.0","responseType":"finish","participantID":"g2q44dnghe30ote6jr3x77rz1waazyfo","conditionNumber":"expected"},{"rt":8928,"responses":"{\"Q0\":0}","trial_type":"survey-likert","trial_index":21,"time_elapsed":210826,"internal_node_id":"0.0-9.0-1.0","responseType":"finish","participantID":"g2q44dnghe30ote6jr3x77rz1waazyfo","conditionNumber":"expected"},{"rt":null,"stimulus":"\u003cp\u003eNow we will show you another configuration of the anagram\u003c/p\u003e","key_press":null,"trial_type":"html-keyboard-response","trial_index":22,"time_elapsed":216830,"internal_node_id":"0.0-9.0-2.0","responseType":"finish","participantID":"g2q44dnghe30ote6jr3x77rz1waazyfo","conditionNumber":"expected"},{"rt":null,"stimulus":"\u003cp\u003e\u003ch1\u003eUHNGYAT\u003c/h1\u003e\u003c/p\u003e","key_press":null,"trial_type":"html-keyboard-response","trial_index":23,"time_elapsed":220834,"internal_node_id":"0.0-9.1-0.1","responseType":"finish","participantID":"g2q44dnghe30ote6jr3x77rz1waazyfo","conditionNumber":"expected"},{"rt":3956,"responses":"{\"Q0\":0}","trial_type":"survey-likert","trial_index":24,"time_elapsed":224793,"internal_node_id":"0.0-9.1-1.1","responseType":"finish","participantID":"g2q44dnghe30ote6jr3x77rz1waazyfo","conditionNumber":"expected"},{"rt":null,"stimulus":"\u003cp\u003eNow we will show you another configuration of the anagram\u003c/p\u003e","key_press":null,"trial_type":"html-keyboard-response","trial_index":25,"time_elapsed":230796,"internal_node_id":"0.0-9.1-2.1","responseType":"finish","participantID":"g2q44dnghe30ote6jr3x77rz1waazyfo","conditionNumber":"expected"},{"rt":null,"stimulus":"\u003cp\u003e\u003ch1\u003eYHANUTG\u003c/h1\u003e\u003c/p\u003e","key_press":null,"trial_type":"html-keyboard-response","trial_index":26,"time_elapsed":234799,"internal_node_id":"0.0-9.2-0.2","responseType":"finish","participantID":"g2q44dnghe30ote6jr3x77rz1waazyfo","conditionNumber":"expected"},{"rt":5780,"responses":"{\"Q0\":0}","trial_type":"survey-likert","trial_index":27,"time_elapsed":240580,"internal_node_id":"0.0-9.2-1.2","responseType":"finish","participantID":"g2q44dnghe30ote6jr3x77rz1waazyfo","conditionNumber":"expected"},{"rt":null,"stimulus":"\u003cp\u003eNow we will show you another configuration of the anagram\u003c/p\u003e","key_press":null,"trial_type":"html-keyboard-response","trial_index":28,"time_elapsed":246584,"internal_node_id":"0.0-9.2-2.2","responseType":"finish","participantID":"g2q44dnghe30ote6jr3x77rz1waazyfo","conditionNumber":"expected"},{"rt":null,"stimulus":"\u003cp\u003e\u003ch1\u003eATGNYHU\u003c/h1\u003e\u003c/p\u003e","key_press":null,"trial_type":"html-keyboard-response","trial_index":29,"time_elapsed":250587,"internal_node_id":"0.0-9.3-0.3","responseType":"finish","participantID":"g2q44dnghe30ote6jr3x77rz1waazyfo","conditionNumber":"expected"},{"rt":5568,"responses":"{\"Q0\":0}","trial_type":"survey-likert","trial_index":30,"time_elapsed":256157,"internal_node_id":"0.0-9.3-1.3","responseType":"finish","participantID":"g2q44dnghe30ote6jr3x77rz1waazyfo","conditionNumber":"expected"},{"rt":null,"stimulus":"\u003cp\u003eNow we will show you another configuration of the anagram\u003c/p\u003e","key_press":null,"trial_type":"html-keyboard-response","trial_index":31,"time_elapsed":262161,"internal_node_id":"0.0-9.3-2.3","responseType":"finish","participantID":"g2q44dnghe30ote6jr3x77rz1waazyfo","conditionNumber":"expected"},{"rt":null,"stimulus":"\u003cp\u003e\u003ch1\u003eGANYTHU\u003c/h1\u003e\u003c/p\u003e","key_press":null,"trial_type":"html-keyboard-response","trial_index":32,"time_elapsed":266163,"internal_node_id":"0.0-9.4-0.4","responseType":"finish","participantID":"g2q44dnghe30ote6jr3x77rz1waazyfo","conditionNumber":"expected"},{"rt":5524,"responses":"{\"Q0\":0}","trial_type":"survey-likert","trial_index":33,"time_elapsed":271689,"internal_node_id":"0.0-9.4-1.4","responseType":"finish","participantID":"g2q44dnghe30ote6jr3x77rz1waazyfo","conditionNumber":"expected"},{"rt":null,"stimulus":"\u003cp\u003eNow we will show you another configuration of the anagram\u003c/p\u003e","key_press":null,"trial_type":"html-keyboard-response","trial_index":34,"time_elapsed":277693,"internal_node_id":"0.0-9.4-2.4","responseType":"finish","participantID":"g2q44dnghe30ote6jr3x77rz1waazyfo","conditionNumber":"expected"},{"rt":null,"stimulus":"\u003cp\u003e\u003ch1\u003eTHANYGU\u003c/h1\u003e\u003c/p\u003e","key_press":null,"trial_type":"html-keyboard-response","trial_index":35,"time_elapsed":281695,"internal_node_id":"0.0-9.5-0.5","responseType":"finish","participantID":"g2q44dnghe30ote6jr3x77rz1waazyfo","conditionNumber":"expected"},{"rt":4956,"responses":"{\"Q0\":0}","trial_type":"survey-likert","trial_index":36,"time_elapsed":286654,"internal_node_id":"0.0-9.5-1.5","responseType":"finish","participantID":"g2q44dnghe30ote6jr3x77rz1waazyfo","conditionNumber":"expected"},{"rt":null,"stimulus":"\u003cp\u003eNow we will show you another configuration of the anagram\u003c/p\u003e","key_press":null,"trial_type":"html-keyboard-response","trial_index":37,"time_elapsed":292658,"internal_node_id":"0.0-9.5-2.5","responseType":"finish","participantID":"g2q44dnghe30ote6jr3x77rz1waazyfo","conditionNumber":"expected"},{"rt":null,"stimulus":"\u003cp\u003e\u003ch1\u003eAGNYUTH\u003c/h1\u003e\u003c/p\u003e","key_press":null,"trial_type":"html-keyboard-response","trial_index":38,"time_elapsed":296661,"internal_node_id":"0.0-9.6-0.6","responseType":"finish","participantID":"g2q44dnghe30ote6jr3x77rz1waazyfo","conditionNumber":"expected"},{"rt":7496,"responses":"{\"Q0\":0}","trial_type":"survey-likert","trial_index":39,"time_elapsed":304159,"internal_node_id":"0.0-9.6-1.6","responseType":"finish","participantID":"g2q44dnghe30ote6jr3x77rz1waazyfo","conditionNumber":"expected"},{"rt":null,"stimulus":"\u003cp\u003eWe will now show you a much \u003cb\u003eeasier\u003c/b\u003e configuration of this anagram\u003c/p\u003e","key_press":null,"trial_type":"html-keyboard-response","trial_index":40,"time_elapsed":310163,"internal_node_id":"0.0-9.6-2.6","responseType":"finish","participantID":"g2q44dnghe30ote6jr3x77rz1waazyfo","conditionNumber":"expected"},{"rt":null,"stimulus":"\u003cp\u003e\u003ch1\u003eNAUHGTY\u003c/h1\u003e\u003c/p\u003e","key_press":null,"trial_type":"html-keyboard-response","trial_index":41,"time_elapsed":314165,"internal_node_id":"0.0-9.7-0.7","responseType":"finish","participantID":"g2q44dnghe30ote6jr3x77rz1waazyfo","conditionNumber":"expected"},{"rt":5894,"responses":"{\"Q0\":9}","trial_type":"survey-likert","trial_index":42,"time_elapsed":320061,"internal_node_id":"0.0-9.7-1.7","responseType":"finish","participantID":"g2q44dnghe30ote6jr3x77rz1waazyfo","conditionNumber":"expected"},{"rt":null,"stimulus":"\u003cp\u003eNow we will show you another configuration of the anagram\u003c/p\u003e","key_press":null,"trial_type":"html-keyboard-response","trial_index":43,"time_elapsed":320064,"internal_node_id":"0.0-9.7-2.7","responseType":"finish","participantID":"g2q44dnghe30ote6jr3x77rz1waazyfo","conditionNumber":"expected"},{"rt":18077,"responses":"{\"Q0\":9}","trial_type":"survey-likert","trial_index":44,"time_elapsed":338143,"internal_node_id":"0.0-10.0","responseType":"finish","participantID":"g2q44dnghe30ote6jr3x77rz1waazyfo","conditionNumber":"expected"}],"__v":0}
{"_id":{"$oid":"5d6da09f21e1970004d4b8a5"},"data":{"responseType":"start","participantID":"7tjej7alge7xy26kswhk9rqyw42nmqsy","conditionNumber":"unexpected"},"__v":0}
{"_id":{"$oid":"5d6da0d921e1970004d4b8a6"},"data":{"responseType":"start","participantID":"qqa0c3jg9ncdr3aopb9gy0jopvjyug6r","conditionNumber":"expected"},"__v":0}
{"_id":{"$oid":"5d6da0f821e1970004d4b8a7"},"data":{"responseType":"start","participantID":"5exzy2vxy2gvnfynhw663ah07drlkjre","conditionNumber":"expected"},"__v":0}
{"_id":{"$oid":"5d6da13221e1970004d4b8a8"},"data":[{"rt":3686,"responses":"{\"Q0\":\" I consent to participate \"}","trial_type":"survey-multi-choice","trial_index":0,"time_elapsed":3690,"internal_node_id":"0.0-0.0","responseType":"finish","participantID":"7tjej7alge7xy26kswhk9rqyw42nmqsy","conditionNumber":"unexpected"},{"trial_type":"call-function","trial_index":1,"time_elapsed":3701,"internal_node_id":"0.0-1.0","responseType":"finish","participantID":"7tjej7alge7xy26kswhk9rqyw42nmqsy","conditionNumber":"unexpected"},{"rt":4099,"stimulus":"\u003ch1 id=\"welcome\"\u003eWelcome\u003c/h1\u003e\n\u003cp\u003eWelcome to the Experiment! In this experiment, we will give you two \u003cem\u003eanagrams\u003c/em\u003e to solve. An \u003cem\u003eanagram\u003c/em\u003e is simply a word or phrase formed by rearranging the letters of another word or phrase. For example:\u003c/p\u003e\n\u003cul\u003e\n\u003cli\u003e\u003cstrong\u003ePOKER\u003c/strong\u003e is an anagram of \u003cstrong\u003ePKOER\u003c/strong\u003e\u003c/li\u003e\n\u003cli\u003e\u003cstrong\u003ePIKE\u003c/strong\u003e is an anagram of \u003cstrong\u003eKEPI\u003c/strong\u003e\u003c/li\u003e\n\u003c/ul\u003e\n\u003cp\u003eWe kindly request for your full attention for the experiment and ask you to refrain from using Google or other search engines. \u003c/p\u003e\n\u003cp\u003ePlease press the \u003cstrong\u003e'n' key\u003c/strong\u003e to continue once you understand.\u003c/p\u003e","key_press":78,"trial_type":"html-keyboard-response","trial_index":2,"time_elapsed":7802,"internal_node_id":"0.0-2.0","responseType":"finish","participantID":"7tjej7alge7xy26kswhk9rqyw42nmqsy","conditionNumber":"unexpected"},{"rt":19434,"stimulus":"\u003ch1 id=\"instructions\"\u003eInstructions\u003c/h1\u003e\n\u003cp\u003eWhen you click next, you will be presented with an anagram that will be displayed for 4 seconds. Following that, the \u003cem\u003esame\u003c/em\u003e anagram will be presented to you again in a \u003cem\u003edifferent\u003c/em\u003e configuration for 4 seconds. \u003c/p\u003e\n\u003cp\u003eIn total, we will present the anagram to you in \u003cstrong\u003ethree\u003c/strong\u003e different configurations. If you have not figured the answer to the anagram by then, then at the \u003cstrong\u003efourth\u003c/strong\u003e time, we will show a much \u003cstrong\u003eeasier\u003c/strong\u003e configuration of that anagram to you. \u003c/p\u003e\n\u003cp\u003eAs an example, you may be presented with random configurations such as: \u003cstrong\u003eONLEM\u003c/strong\u003e, \u003cstrong\u003eMOELN\u003c/strong\u003e, \u003cstrong\u003eNMEOL\u003c/strong\u003e, and finally the easier configuration, \u003cstrong\u003eLMEON\u003c/strong\u003e. Here, these configurations come from the same anagram, LEMON and your goal was figuring out the underlying anagram. \u003c/p\u003e\n\u003cp\u003ePlease press the \u003cstrong\u003e'm' key\u003c/strong\u003e to continue once you understand.\u003c/p\u003e","key_press":77,"trial_type":"html-keyboard-response","trial_index":3,"time_elapsed":27237,"internal_node_id":"0.0-3.0","responseType":"finish","participantID":"7tjej7alge7xy26kswhk9rqyw42nmqsy","conditionNumber":"unexpected"},{"rt":5312,"stimulus":"\u003ch1 id=\"instructions\"\u003eInstructions\u003c/h1\u003e\n\u003cp\u003eNow, we will present you the first anagram which you have to solve. We will present the anagram to you in \u003cstrong\u003ethree\u003c/strong\u003e different configurations. If you have not figured the answer to the anagram by then, then we will show a much \u003cstrong\u003eeasier\u003c/strong\u003e configuration to you in the \u003cstrong\u003efourth\u003c/strong\u003e iteration. \u003c/p\u003e\n\u003cp\u003ePlease press the \u003cstrong\u003e'b' key\u003c/strong\u003e to continue.\u003c/p\u003e","key_press":66,"trial_type":"html-keyboard-response","trial_index":4,"time_elapsed":32550,"internal_node_id":"0.0-4.0","responseType":"finish","participantID":"7tjej7alge7xy26kswhk9rqyw42nmqsy","conditionNumber":"unexpected"},{"rt":null,"stimulus":"\u003cp\u003e\u003ch1\u003eOHEPN\u003c/h1\u003e\u003c/p\u003e","key_press":null,"trial_type":"html-keyboard-response","trial_index":5,"time_elapsed":36553,"internal_node_id":"0.0-5.0-0.0","responseType":"finish","participantID":"7tjej7alge7xy26kswhk9rqyw42nmqsy","conditionNumber":"unexpected"},{"rt":5260,"responses":"{\"Q0\":5}","trial_type":"survey-likert","trial_index":6,"time_elapsed":41815,"internal_node_id":"0.0-5.0-1.0","responseType":"finish","participantID":"7tjej7alge7xy26kswhk9rqyw42nmqsy","conditionNumber":"unexpected"},{"rt":null,"stimulus":"\u003cp\u003eNow we will show you another configuration of the anagram\u003c/p\u003e","key_press":null,"trial_type":"html-keyboard-response","trial_index":7,"time_elapsed":47818,"internal_node_id":"0.0-5.0-2.0","responseType":"finish","participantID":"7tjej7alge7xy26kswhk9rqyw42nmqsy","conditionNumber":"unexpected"},{"rt":null,"stimulus":"\u003cp\u003e\u003ch1\u003eEPHNO\u003c/h1\u003e\u003c/p\u003e","key_press":null,"trial_type":"html-keyboard-response","trial_index":8,"time_elapsed":51824,"internal_node_id":"0.0-5.1-0.1","responseType":"finish","participantID":"7tjej7alge7xy26kswhk9rqyw42nmqsy","conditionNumber":"unexpected"},{"rt":3414,"responses":"{\"Q0\":6}","trial_type":"survey-likert","trial_index":9,"time_elapsed":55240,"internal_node_id":"0.0-5.1-1.1","responseType":"finish","participantID":"7tjej7alge7xy26kswhk9rqyw42nmqsy","conditionNumber":"unexpected"},{"rt":null,"stimulus":"\u003cp\u003eNow we will show you another configuration of the anagram\u003c/p\u003e","key_press":null,"trial_type":"html-keyboard-response","trial_index":10,"time_elapsed":61243,"internal_node_id":"0.0-5.1-2.1","responseType":"finish","participantID":"7tjej7alge7xy26kswhk9rqyw42nmqsy","conditionNumber":"unexpected"},{"rt":null,"stimulus":"\u003cp\u003e\u003ch1\u003eHNPEO\u003c/h1\u003e\u003c/p\u003e","key_press":null,"trial_type":"html-keyboard-response","trial_index":11,"time_elapsed":65245,"internal_node_id":"0.0-5.2-0.2","responseType":"finish","participantID":"7tjej7alge7xy26kswhk9rqyw42nmqsy","conditionNumber":"unexpected"},{"rt":5533,"responses":"{\"Q0\":9}","trial_type":"survey-likert","trial_index":12,"time_elapsed":70780,"internal_node_id":"0.0-5.2-1.2","responseType":"finish","participantID":"7tjej7alge7xy26kswhk9rqyw42nmqsy","conditionNumber":"unexpected"},{"rt":null,"stimulus":"\u003cp\u003eWe will now show you a much \u003cb\u003eeasier\u003c/b\u003e configuration of this anagram\u003c/p\u003e","key_press":null,"trial_type":"html-keyboard-response","trial_index":13,"time_elapsed":76782,"internal_node_id":"0.0-5.2-2.2","responseType":"finish","participantID":"7tjej7alge7xy26kswhk9rqyw42nmqsy","conditionNumber":"unexpected"},{"rt":null,"stimulus":"\u003cp\u003e\u003ch1\u003ePHNOE\u003c/h1\u003e\u003c/p\u003e","key_press":null,"trial_type":"html-keyboard-response","trial_index":14,"time_elapsed":80783,"internal_node_id":"0.0-5.3-0.3","responseType":"finish","participantID":"7tjej7alge7xy26kswhk9rqyw42nmqsy","conditionNumber":"unexpected"},{"rt":2646,"responses":"{\"Q0\":9}","trial_type":"survey-likert","trial_index":15,"time_elapsed":83430,"internal_node_id":"0.0-5.3-1.3","responseType":"finish","participantID":"7tjej7alge7xy26kswhk9rqyw42nmqsy","conditionNumber":"unexpected"},{"rt":null,"stimulus":"\u003cp\u003eNow we will show you another configuration of the anagram\u003c/p\u003e","key_press":null,"trial_type":"html-keyboard-response","trial_index":16,"time_elapsed":83433,"internal_node_id":"0.0-5.3-2.3","responseType":"finish","participantID":"7tjej7alge7xy26kswhk9rqyw42nmqsy","conditionNumber":"unexpected"},{"rt":4494,"responses":"{\"Q0\":9}","trial_type":"survey-likert","trial_index":17,"time_elapsed":87927,"internal_node_id":"0.0-6.0","responseType":"finish","participantID":"7tjej7alge7xy26kswhk9rqyw42nmqsy","conditionNumber":"unexpected"},{"rt":8212,"stimulus":"\u003ch1 id=\"instructions\"\u003eInstructions\u003c/h1\u003e\n\u003cp\u003eThank you for your attention so far. Now, you will be presented with the second anagram which you have to solve. \u003c/p\u003e\n\u003cp\u003eThis time, we will present the anagram to you in \u003cstrong\u003eseven\u003c/strong\u003e different configurations. If you have not figured the answer to the anagram by then, then at the \u003cstrong\u003eeighth\u003c/strong\u003e time, we will show a much \u003cstrong\u003eeasier\u003c/strong\u003e configuration of that anagram to you. \u003c/p\u003e\n\u003cp\u003ePlease press the \u003cstrong\u003e'g' key\u003c/strong\u003e to continue once you understand.\u003c/p\u003e","key_press":71,"trial_type":"html-keyboard-response","trial_index":18,"time_elapsed":96140,"internal_node_id":"0.0-7.0","responseType":"finish","participantID":"7tjej7alge7xy26kswhk9rqyw42nmqsy","conditionNumber":"unexpected"},{"rt":5502,"responses":"{\"Q0\":\"7 configurations\"}","trial_type":"survey-multi-choice","trial_index":19,"time_elapsed":101643,"internal_node_id":"0.0-8.0","responseType":"finish","participantID":"7tjej7alge7xy26kswhk9rqyw42nmqsy","conditionNumber":"unexpected"},{"rt":null,"stimulus":"\u003cp\u003e\u003ch1\u003eHNTYUGA\u003c/h1\u003e\u003c/p\u003e","key_press":null,"trial_type":"html-keyboard-response","trial_index":20,"time_elapsed":105645,"internal_node_id":"0.0-9.0-0.0","responseType":"finish","participantID":"7tjej7alge7xy26kswhk9rqyw42nmqsy","conditionNumber":"unexpected"},{"rt":3294,"responses":"{\"Q0\":0}","trial_type":"survey-likert","trial_index":21,"time_elapsed":108939,"internal_node_id":"0.0-9.0-1.0","responseType":"finish","participantID":"7tjej7alge7xy26kswhk9rqyw42nmqsy","conditionNumber":"unexpected"},{"rt":null,"stimulus":"\u003cp\u003eNow we will show you another configuration of the anagram\u003c/p\u003e","key_press":null,"trial_type":"html-keyboard-response","trial_index":22,"time_elapsed":114946,"internal_node_id":"0.0-9.0-2.0","responseType":"finish","participantID":"7tjej7alge7xy26kswhk9rqyw42nmqsy","conditionNumber":"unexpected"},{"rt":null,"stimulus":"\u003cp\u003e\u003ch1\u003eUHNGYAT\u003c/h1\u003e\u003c/p\u003e","key_press":null,"trial_type":"html-keyboard-response","trial_index":23,"time_elapsed":118947,"internal_node_id":"0.0-9.1-0.1","responseType":"finish","participantID":"7tjej7alge7xy26kswhk9rqyw42nmqsy","conditionNumber":"unexpected"},{"rt":3425,"responses":"{\"Q0\":2}","trial_type":"survey-likert","trial_index":24,"time_elapsed":122373,"internal_node_id":"0.0-9.1-1.1","responseType":"finish","participantID":"7tjej7alge7xy26kswhk9rqyw42nmqsy","conditionNumber":"unexpected"},{"rt":null,"stimulus":"\u003cp\u003eNow we will show you another configuration of the anagram\u003c/p\u003e","key_press":null,"trial_type":"html-keyboard-response","trial_index":25,"time_elapsed":128375,"internal_node_id":"0.0-9.1-2.1","responseType":"finish","participantID":"7tjej7alge7xy26kswhk9rqyw42nmqsy","conditionNumber":"unexpected"},{"rt":null,"stimulus":"\u003cp\u003e\u003ch1\u003eYHANUTG\u003c/h1\u003e\u003c/p\u003e","key_press":null,"trial_type":"html-keyboard-response","trial_index":26,"time_elapsed":132376,"internal_node_id":"0.0-9.2-0.2","responseType":"finish","participantID":"7tjej7alge7xy26kswhk9rqyw42nmqsy","conditionNumber":"unexpected"},{"rt":3395,"responses":"{\"Q0\":9}","trial_type":"survey-likert","trial_index":27,"time_elapsed":135772,"internal_node_id":"0.0-9.2-1.2","responseType":"finish","participantID":"7tjej7alge7xy26kswhk9rqyw42nmqsy","conditionNumber":"unexpected"},{"rt":null,"stimulus":"\u003cp\u003eNow we will show you another configuration of the anagram\u003c/p\u003e","key_press":null,"trial_type":"html-keyboard-response","trial_index":28,"time_elapsed":141774,"internal_node_id":"0.0-9.2-2.2","responseType":"finish","participantID":"7tjej7alge7xy26kswhk9rqyw42nmqsy","conditionNumber":"unexpected"},{"rt":null,"stimulus":"\u003cp\u003e\u003ch1\u003eNAUHGTY\u003c/h1\u003e\u003c/p\u003e","key_press":null,"trial_type":"html-keyboard-response","trial_index":29,"time_elapsed":145774,"internal_node_id":"0.0-9.3-0.3","responseType":"finish","participantID":"7tjej7alge7xy26kswhk9rqyw42nmqsy","conditionNumber":"unexpected"},{"rt":1742,"responses":"{\"Q0\":9}","trial_type":"survey-likert","trial_index":30,"time_elapsed":147518,"internal_node_id":"0.0-9.3-1.3","responseType":"finish","participantID":"7tjej7alge7xy26kswhk9rqyw42nmqsy","conditionNumber":"unexpected"},{"rt":null,"stimulus":"\u003cp\u003eNow we will show you another configuration of the anagram\u003c/p\u003e","key_press":null,"trial_type":"html-keyboard-response","trial_index":31,"time_elapsed":147522,"internal_node_id":"0.0-9.3-2.3","responseType":"finish","participantID":"7tjej7alge7xy26kswhk9rqyw42nmqsy","conditionNumber":"unexpected"},{"rt":2746,"responses":"{\"Q0\":9}","trial_type":"survey-likert","trial_index":32,"time_elapsed":150271,"internal_node_id":"0.0-10.0","responseType":"finish","participantID":"7tjej7alge7xy26kswhk9rqyw42nmqsy","conditionNumber":"unexpected"}],"__v":0}
