{"_id":{"$oid":"5d5edf80e11f40000416bed3"},"data":{"responseType":"start","participantID":"1sun36rp2mbyaxn3x2y04m5gj85g8tsa","conditionNumber":"sequential"},"__v":0}
{"_id":{"$oid":"5d5edfcae11f40000416bed4"},"data":{"responseType":"start","participantID":"0paxx3yru26j4ef5q6psuf4u5p7zfcgz","conditionNumber":"instant"},"__v":0}
{"_id":{"$oid":"5d5ee005e11f40000416bed5"},"data":[{"rt":6217,"responses":"{\"Q0\":\" I consent to participate \"}","trial_type":"survey-multi-choice","trial_index":0,"time_elapsed":6222,"internal_node_id":"0.0-0.0","responseType":"finish","participantID":"0paxx3yru26j4ef5q6psuf4u5p7zfcgz","conditionNumber":"instant"},{"trial_type":"call-function","trial_index":1,"time_elapsed":6242,"internal_node_id":"0.0-1.0","responseType":"finish","participantID":"0paxx3yru26j4ef5q6psuf4u5p7zfcgz","conditionNumber":"instant"},{"view_history":"[{\"page_index\":0,\"viewing_time\":3003},{\"page_index\":1,\"viewing_time\":1891}]","rt":4895,"trial_type":"instructions","trial_index":2,"time_elapsed":11138,"internal_node_id":"0.0-2.0","responseType":"finish","participantID":"0paxx3yru26j4ef5q6psuf4u5p7zfcgz","conditionNumber":"instant"},{"rt":null,"stimulus":"\u003cp\u003e\u003ch1\u003eRAGOCIN\u003c/h1\u003e\u003c/p\u003e","key_press":null,"trial_type":"html-keyboard-response","trial_index":3,"time_elapsed":15141,"internal_node_id":"0.0-3.0-0.0","responseType":"finish","participantID":"0paxx3yru26j4ef5q6psuf4u5p7zfcgz","conditionNumber":"instant"},{"rt":4492,"responses":"{\"Q0\":1}","trial_type":"survey-likert","trial_index":4,"time_elapsed":19634,"internal_node_id":"0.0-3.0-1.0","responseType":"finish","participantID":"0paxx3yru26j4ef5q6psuf4u5p7zfcgz","conditionNumber":"instant"},{"rt":null,"stimulus":"\u003cp\u003e\u003ch1\u003eOCRAIGN\u003c/h1\u003e\u003c/p\u003e","key_press":null,"trial_type":"html-keyboard-response","trial_index":5,"time_elapsed":23647,"internal_node_id":"0.0-3.1-0.1","responseType":"finish","participantID":"0paxx3yru26j4ef5q6psuf4u5p7zfcgz","conditionNumber":"instant"},{"rt":2553,"responses":"{\"Q0\":1}","trial_type":"survey-likert","trial_index":6,"time_elapsed":26202,"internal_node_id":"0.0-3.1-1.1","responseType":"finish","participantID":"0paxx3yru26j4ef5q6psuf4u5p7zfcgz","conditionNumber":"instant"},{"rt":null,"stimulus":"\u003cp\u003e\u003ch1\u003eGRCINOA\u003c/h1\u003e\u003c/p\u003e","key_press":null,"trial_type":"html-keyboard-response","trial_index":7,"time_elapsed":30232,"internal_node_id":"0.0-3.2-0.2","responseType":"finish","participantID":"0paxx3yru26j4ef5q6psuf4u5p7zfcgz","conditionNumber":"instant"},{"rt":2452,"responses":"{\"Q0\":1}","trial_type":"survey-likert","trial_index":8,"time_elapsed":32684,"internal_node_id":"0.0-3.2-1.2","responseType":"finish","participantID":"0paxx3yru26j4ef5q6psuf4u5p7zfcgz","conditionNumber":"instant"},{"rt":null,"stimulus":"\u003cp\u003e\u003ch1\u003eCROAIGN\u003c/h1\u003e\u003c/p\u003e","key_press":null,"trial_type":"html-keyboard-response","trial_index":9,"time_elapsed":36699,"internal_node_id":"0.0-3.3-0.3","responseType":"finish","participantID":"0paxx3yru26j4ef5q6psuf4u5p7zfcgz","conditionNumber":"instant"},{"rt":2690,"responses":"{\"Q0\":1}","trial_type":"survey-likert","trial_index":10,"time_elapsed":39390,"internal_node_id":"0.0-3.3-1.3","responseType":"finish","participantID":"0paxx3yru26j4ef5q6psuf4u5p7zfcgz","conditionNumber":"instant"},{"rt":null,"stimulus":"\u003cp\u003e\u003ch1\u003eAGCORNI\u003c/h1\u003e\u003c/p\u003e","key_press":null,"trial_type":"html-keyboard-response","trial_index":11,"time_elapsed":43437,"internal_node_id":"0.0-3.4-0.4","responseType":"finish","participantID":"0paxx3yru26j4ef5q6psuf4u5p7zfcgz","conditionNumber":"instant"},{"rt":2131,"responses":"{\"Q0\":1}","trial_type":"survey-likert","trial_index":12,"time_elapsed":45571,"internal_node_id":"0.0-3.4-1.4","responseType":"finish","participantID":"0paxx3yru26j4ef5q6psuf4u5p7zfcgz","conditionNumber":"instant"},{"rt":null,"stimulus":"\u003cp\u003e\u003ch1\u003eNACGIOR\u003c/h1\u003e\u003c/p\u003e","key_press":null,"trial_type":"html-keyboard-response","trial_index":13,"time_elapsed":49592,"internal_node_id":"0.0-3.5-0.5","responseType":"finish","participantID":"0paxx3yru26j4ef5q6psuf4u5p7zfcgz","conditionNumber":"instant"},{"rt":3567,"responses":"{\"Q0\":1}","trial_type":"survey-likert","trial_index":14,"time_elapsed":53159,"internal_node_id":"0.0-3.5-1.5","responseType":"finish","participantID":"0paxx3yru26j4ef5q6psuf4u5p7zfcgz","conditionNumber":"instant"},{"rt":null,"stimulus":"\u003cp\u003e\u003ch1\u003eORAGNIC\u003c/h1\u003e\u003c/p\u003e","key_press":null,"trial_type":"html-keyboard-response","trial_index":15,"time_elapsed":57193,"internal_node_id":"0.0-3.6-0.6","responseType":"finish","participantID":"0paxx3yru26j4ef5q6psuf4u5p7zfcgz","conditionNumber":"instant"},{"rt":2904,"responses":"{\"Q0\":8}","trial_type":"survey-likert","trial_index":16,"time_elapsed":60097,"internal_node_id":"0.0-3.6-1.6","responseType":"finish","participantID":"0paxx3yru26j4ef5q6psuf4u5p7zfcgz","conditionNumber":"instant"},{"rt":5096,"responses":"{\"Q0\":9}","trial_type":"survey-likert","trial_index":17,"time_elapsed":65238,"internal_node_id":"0.0-4.0","responseType":"finish","participantID":"0paxx3yru26j4ef5q6psuf4u5p7zfcgz","conditionNumber":"instant"}],"__v":0}
{"_id":{"$oid":"5d5ee009e11f40000416bed6"},"data":{"responseType":"start","participantID":"cnrr3etv5te3kctmk3eh8tx67d79z27c","conditionNumber":"instant"},"__v":0}
{"_id":{"$oid":"5d5ee018e11f40000416bed7"},"data":{"responseType":"start","participantID":"lggxacnj80v7qbz3akj87wkzlog7ywg1","conditionNumber":"instant"},"__v":0}
{"_id":{"$oid":"5d5ee054e11f40000416bed8"},"data":[{"rt":5811,"responses":"{\"Q0\":\" I consent to participate \"}","trial_type":"survey-multi-choice","trial_index":0,"time_elapsed":5816,"internal_node_id":"0.0-0.0","responseType":"finish","participantID":"1sun36rp2mbyaxn3x2y04m5gj85g8tsa","conditionNumber":"sequential"},{"trial_type":"call-function","trial_index":1,"time_elapsed":5821,"internal_node_id":"0.0-1.0","responseType":"finish","participantID":"1sun36rp2mbyaxn3x2y04m5gj85g8tsa","conditionNumber":"sequential"},{"view_history":"[{\"page_index\":0,\"viewing_time\":12351},{\"page_index\":1,\"viewing_time\":9906}]","rt":22257,"trial_type":"instructions","trial_index":2,"time_elapsed":28079,"internal_node_id":"0.0-2.0","responseType":"finish","participantID":"1sun36rp2mbyaxn3x2y04m5gj85g8tsa","conditionNumber":"sequential"},{"rt":null,"stimulus":"\u003cp\u003e\u003ch1\u003eRAGOCIN\u003c/h1\u003e\u003c/p\u003e","key_press":null,"trial_type":"html-keyboard-response","trial_index":3,"time_elapsed":32083,"internal_node_id":"0.0-3.0-0.0","responseType":"finish","participantID":"1sun36rp2mbyaxn3x2y04m5gj85g8tsa","conditionNumber":"sequential"},{"rt":40611,"responses":"{\"Q0\":0}","trial_type":"survey-likert","trial_index":4,"time_elapsed":72696,"internal_node_id":"0.0-3.0-1.0","responseType":"finish","participantID":"1sun36rp2mbyaxn3x2y04m5gj85g8tsa","conditionNumber":"sequential"},{"rt":null,"stimulus":"\u003cp\u003e\u003ch1\u003eRAOGCIN\u003c/h1\u003e\u003c/p\u003e","key_press":null,"trial_type":"html-keyboard-response","trial_index":5,"time_elapsed":76699,"internal_node_id":"0.0-3.1-0.1","responseType":"finish","participantID":"1sun36rp2mbyaxn3x2y04m5gj85g8tsa","conditionNumber":"sequential"},{"rt":13449,"responses":"{\"Q0\":0}","trial_type":"survey-likert","trial_index":6,"time_elapsed":90150,"internal_node_id":"0.0-3.1-1.1","responseType":"finish","participantID":"1sun36rp2mbyaxn3x2y04m5gj85g8tsa","conditionNumber":"sequential"},{"rt":null,"stimulus":"\u003cp\u003e\u003ch1\u003eROAGCIN\u003c/h1\u003e\u003c/p\u003e","key_press":null,"trial_type":"html-keyboard-response","trial_index":7,"time_elapsed":94152,"internal_node_id":"0.0-3.2-0.2","responseType":"finish","participantID":"1sun36rp2mbyaxn3x2y04m5gj85g8tsa","conditionNumber":"sequential"},{"rt":64596,"responses":"{\"Q0\":0}","trial_type":"survey-likert","trial_index":8,"time_elapsed":158749,"internal_node_id":"0.0-3.2-1.2","responseType":"finish","participantID":"1sun36rp2mbyaxn3x2y04m5gj85g8tsa","conditionNumber":"sequential"},{"rt":null,"stimulus":"\u003cp\u003e\u003ch1\u003eORAGCIN\u003c/h1\u003e\u003c/p\u003e","key_press":null,"trial_type":"html-keyboard-response","trial_index":9,"time_elapsed":162751,"internal_node_id":"0.0-3.3-0.3","responseType":"finish","participantID":"1sun36rp2mbyaxn3x2y04m5gj85g8tsa","conditionNumber":"sequential"},{"rt":18101,"responses":"{\"Q0\":6}","trial_type":"survey-likert","trial_index":10,"time_elapsed":180856,"internal_node_id":"0.0-3.3-1.3","responseType":"finish","participantID":"1sun36rp2mbyaxn3x2y04m5gj85g8tsa","conditionNumber":"sequential"},{"rt":null,"stimulus":"\u003cp\u003e\u003ch1\u003eORAGCNI\u003c/h1\u003e\u003c/p\u003e","key_press":null,"trial_type":"html-keyboard-response","trial_index":11,"time_elapsed":184857,"internal_node_id":"0.0-3.4-0.4","responseType":"finish","participantID":"1sun36rp2mbyaxn3x2y04m5gj85g8tsa","conditionNumber":"sequential"},{"rt":2643,"responses":"{\"Q0\":9}","trial_type":"survey-likert","trial_index":12,"time_elapsed":187501,"internal_node_id":"0.0-3.4-1.4","responseType":"finish","participantID":"1sun36rp2mbyaxn3x2y04m5gj85g8tsa","conditionNumber":"sequential"},{"rt":null,"stimulus":"\u003cp\u003e\u003ch1\u003eORAGNCI\u003c/h1\u003e\u003c/p\u003e","key_press":null,"trial_type":"html-keyboard-response","trial_index":13,"time_elapsed":191503,"internal_node_id":"0.0-3.5-0.5","responseType":"finish","participantID":"1sun36rp2mbyaxn3x2y04m5gj85g8tsa","conditionNumber":"sequential"},{"rt":3527,"responses":"{\"Q0\":9}","trial_type":"survey-likert","trial_index":14,"time_elapsed":195030,"internal_node_id":"0.0-3.5-1.5","responseType":"finish","participantID":"1sun36rp2mbyaxn3x2y04m5gj85g8tsa","conditionNumber":"sequential"},{"rt":null,"stimulus":"\u003cp\u003e\u003ch1\u003eORAGNIC\u003c/h1\u003e\u003c/p\u003e","key_press":null,"trial_type":"html-keyboard-response","trial_index":15,"time_elapsed":199031,"internal_node_id":"0.0-3.6-0.6","responseType":"finish","participantID":"1sun36rp2mbyaxn3x2y04m5gj85g8tsa","conditionNumber":"sequential"},{"rt":3870,"responses":"{\"Q0\":9}","trial_type":"survey-likert","trial_index":16,"time_elapsed":202903,"internal_node_id":"0.0-3.6-1.6","responseType":"finish","participantID":"1sun36rp2mbyaxn3x2y04m5gj85g8tsa","conditionNumber":"sequential"},{"rt":14551,"responses":"{\"Q0\":2}","trial_type":"survey-likert","trial_index":17,"time_elapsed":217455,"internal_node_id":"0.0-4.0","responseType":"finish","participantID":"1sun36rp2mbyaxn3x2y04m5gj85g8tsa","conditionNumber":"sequential"}],"__v":0}
{"_id":{"$oid":"5d5ee057e11f40000416bed9"},"data":[{"rt":8691,"responses":"{\"Q0\":\" I consent to participate \"}","trial_type":"survey-multi-choice","trial_index":0,"time_elapsed":8721,"internal_node_id":"0.0-0.0","responseType":"finish","participantID":"lggxacnj80v7qbz3akj87wkzlog7ywg1","conditionNumber":"instant"},{"trial_type":"call-function","trial_index":1,"time_elapsed":8732,"internal_node_id":"0.0-1.0","responseType":"finish","participantID":"lggxacnj80v7qbz3akj87wkzlog7ywg1","conditionNumber":"instant"},{"view_history":"[{\"page_index\":0,\"viewing_time\":3147},{\"page_index\":1,\"viewing_time\":1270}]","rt":4419,"trial_type":"instructions","trial_index":2,"time_elapsed":13153,"internal_node_id":"0.0-2.0","responseType":"finish","participantID":"lggxacnj80v7qbz3akj87wkzlog7ywg1","conditionNumber":"instant"},{"rt":null,"stimulus":"\u003cp\u003e\u003ch1\u003eRAGOCIN\u003c/h1\u003e\u003c/p\u003e","key_press":null,"trial_type":"html-keyboard-response","trial_index":3,"time_elapsed":17157,"internal_node_id":"0.0-3.0-0.0","responseType":"finish","participantID":"lggxacnj80v7qbz3akj87wkzlog7ywg1","conditionNumber":"instant"},{"rt":11140,"responses":"{\"Q0\":0}","trial_type":"survey-likert","trial_index":4,"time_elapsed":28302,"internal_node_id":"0.0-3.0-1.0","responseType":"finish","participantID":"lggxacnj80v7qbz3akj87wkzlog7ywg1","conditionNumber":"instant"},{"rt":null,"stimulus":"\u003cp\u003e\u003ch1\u003eOCRAIGN\u003c/h1\u003e\u003c/p\u003e","key_press":null,"trial_type":"html-keyboard-response","trial_index":5,"time_elapsed":32307,"internal_node_id":"0.0-3.1-0.1","responseType":"finish","participantID":"lggxacnj80v7qbz3akj87wkzlog7ywg1","conditionNumber":"instant"},{"rt":2675,"responses":"{\"Q0\":0}","trial_type":"survey-likert","trial_index":6,"time_elapsed":34984,"internal_node_id":"0.0-3.1-1.1","responseType":"finish","participantID":"lggxacnj80v7qbz3akj87wkzlog7ywg1","conditionNumber":"instant"},{"rt":null,"stimulus":"\u003cp\u003e\u003ch1\u003eGRCINOA\u003c/h1\u003e\u003c/p\u003e","key_press":null,"trial_type":"html-keyboard-response","trial_index":7,"time_elapsed":38990,"internal_node_id":"0.0-3.2-0.2","responseType":"finish","participantID":"lggxacnj80v7qbz3akj87wkzlog7ywg1","conditionNumber":"instant"},{"rt":3833,"responses":"{\"Q0\":0}","trial_type":"survey-likert","trial_index":8,"time_elapsed":42833,"internal_node_id":"0.0-3.2-1.2","responseType":"finish","participantID":"lggxacnj80v7qbz3akj87wkzlog7ywg1","conditionNumber":"instant"},{"rt":null,"stimulus":"\u003cp\u003e\u003ch1\u003eCROAIGN\u003c/h1\u003e\u003c/p\u003e","key_press":null,"trial_type":"html-keyboard-response","trial_index":9,"time_elapsed":46840,"internal_node_id":"0.0-3.3-0.3","responseType":"finish","participantID":"lggxacnj80v7qbz3akj87wkzlog7ywg1","conditionNumber":"instant"},{"rt":1594,"responses":"{\"Q0\":0}","trial_type":"survey-likert","trial_index":10,"time_elapsed":48437,"internal_node_id":"0.0-3.3-1.3","responseType":"finish","participantID":"lggxacnj80v7qbz3akj87wkzlog7ywg1","conditionNumber":"instant"},{"rt":null,"stimulus":"\u003cp\u003e\u003ch1\u003eAGCORNI\u003c/h1\u003e\u003c/p\u003e","key_press":null,"trial_type":"html-keyboard-response","trial_index":11,"time_elapsed":52446,"internal_node_id":"0.0-3.4-0.4","responseType":"finish","participantID":"lggxacnj80v7qbz3akj87wkzlog7ywg1","conditionNumber":"instant"},{"rt":2621,"responses":"{\"Q0\":0}","trial_type":"survey-likert","trial_index":12,"time_elapsed":55074,"internal_node_id":"0.0-3.4-1.4","responseType":"finish","participantID":"lggxacnj80v7qbz3akj87wkzlog7ywg1","conditionNumber":"instant"},{"rt":null,"stimulus":"\u003cp\u003e\u003ch1\u003eNACGIOR\u003c/h1\u003e\u003c/p\u003e","key_press":null,"trial_type":"html-keyboard-response","trial_index":13,"time_elapsed":59085,"internal_node_id":"0.0-3.5-0.5","responseType":"finish","participantID":"lggxacnj80v7qbz3akj87wkzlog7ywg1","conditionNumber":"instant"},{"rt":1403,"responses":"{\"Q0\":0}","trial_type":"survey-likert","trial_index":14,"time_elapsed":60494,"internal_node_id":"0.0-3.5-1.5","responseType":"finish","participantID":"lggxacnj80v7qbz3akj87wkzlog7ywg1","conditionNumber":"instant"},{"rt":null,"stimulus":"\u003cp\u003e\u003ch1\u003eORAGNIC\u003c/h1\u003e\u003c/p\u003e","key_press":null,"trial_type":"html-keyboard-response","trial_index":15,"time_elapsed":64501,"internal_node_id":"0.0-3.6-0.6","responseType":"finish","participantID":"lggxacnj80v7qbz3akj87wkzlog7ywg1","conditionNumber":"instant"},{"rt":2363,"responses":"{\"Q0\":9}","trial_type":"survey-likert","trial_index":16,"time_elapsed":66870,"internal_node_id":"0.0-3.6-1.6","responseType":"finish","participantID":"lggxacnj80v7qbz3akj87wkzlog7ywg1","conditionNumber":"instant"},{"rt":4616,"responses":"{\"Q0\":9}","trial_type":"survey-likert","trial_index":17,"time_elapsed":71495,"internal_node_id":"0.0-4.0","responseType":"finish","participantID":"lggxacnj80v7qbz3akj87wkzlog7ywg1","conditionNumber":"instant"}],"__v":0}
{"_id":{"$oid":"5d5ee067e11f40000416beda"},"data":{"responseType":"start","participantID":"xv6loaw6s1urgbae59he1ukmz28vg0t1","conditionNumber":"instant"},"__v":0}
{"_id":{"$oid":"5d5ee073e11f40000416bedb"},"data":[{"rt":5905,"responses":"{\"Q0\":\" I consent to participate \"}","trial_type":"survey-multi-choice","trial_index":0,"time_elapsed":5916,"internal_node_id":"0.0-0.0","responseType":"finish","participantID":"cnrr3etv5te3kctmk3eh8tx67d79z27c","conditionNumber":"instant"},{"trial_type":"call-function","trial_index":1,"time_elapsed":5921,"internal_node_id":"0.0-1.0","responseType":"finish","participantID":"cnrr3etv5te3kctmk3eh8tx67d79z27c","conditionNumber":"instant"},{"view_history":"[{\"page_index\":0,\"viewing_time\":2927},{\"page_index\":1,\"viewing_time\":13503}]","rt":16431,"trial_type":"instructions","trial_index":2,"time_elapsed":22352,"internal_node_id":"0.0-2.0","responseType":"finish","participantID":"cnrr3etv5te3kctmk3eh8tx67d79z27c","conditionNumber":"instant"},{"rt":null,"stimulus":"\u003cp\u003e\u003ch1\u003eRAGOCIN\u003c/h1\u003e\u003c/p\u003e","key_press":null,"trial_type":"html-keyboard-response","trial_index":3,"time_elapsed":26354,"internal_node_id":"0.0-3.0-0.0","responseType":"finish","participantID":"cnrr3etv5te3kctmk3eh8tx67d79z27c","conditionNumber":"instant"},{"rt":5394,"responses":"{\"Q0\":3}","trial_type":"survey-likert","trial_index":4,"time_elapsed":31750,"internal_node_id":"0.0-3.0-1.0","responseType":"finish","participantID":"cnrr3etv5te3kctmk3eh8tx67d79z27c","conditionNumber":"instant"},{"rt":null,"stimulus":"\u003cp\u003e\u003ch1\u003eOCRAIGN\u003c/h1\u003e\u003c/p\u003e","key_press":null,"trial_type":"html-keyboard-response","trial_index":5,"time_elapsed":35752,"internal_node_id":"0.0-3.1-0.1","responseType":"finish","participantID":"cnrr3etv5te3kctmk3eh8tx67d79z27c","conditionNumber":"instant"},{"rt":3309,"responses":"{\"Q0\":3}","trial_type":"survey-likert","trial_index":6,"time_elapsed":39062,"internal_node_id":"0.0-3.1-1.1","responseType":"finish","participantID":"cnrr3etv5te3kctmk3eh8tx67d79z27c","conditionNumber":"instant"},{"rt":null,"stimulus":"\u003cp\u003e\u003ch1\u003eGRCINOA\u003c/h1\u003e\u003c/p\u003e","key_press":null,"trial_type":"html-keyboard-response","trial_index":7,"time_elapsed":43063,"internal_node_id":"0.0-3.2-0.2","responseType":"finish","participantID":"cnrr3etv5te3kctmk3eh8tx67d79z27c","conditionNumber":"instant"},{"rt":9262,"responses":"{\"Q0\":3}","trial_type":"survey-likert","trial_index":8,"time_elapsed":52326,"internal_node_id":"0.0-3.2-1.2","responseType":"finish","participantID":"cnrr3etv5te3kctmk3eh8tx67d79z27c","conditionNumber":"instant"},{"rt":null,"stimulus":"\u003cp\u003e\u003ch1\u003eCROAIGN\u003c/h1\u003e\u003c/p\u003e","key_press":null,"trial_type":"html-keyboard-response","trial_index":9,"time_elapsed":56328,"internal_node_id":"0.0-3.3-0.3","responseType":"finish","participantID":"cnrr3etv5te3kctmk3eh8tx67d79z27c","conditionNumber":"instant"},{"rt":10185,"responses":"{\"Q0\":2}","trial_type":"survey-likert","trial_index":10,"time_elapsed":66514,"internal_node_id":"0.0-3.3-1.3","responseType":"finish","participantID":"cnrr3etv5te3kctmk3eh8tx67d79z27c","conditionNumber":"instant"},{"rt":null,"stimulus":"\u003cp\u003e\u003ch1\u003eAGCORNI\u003c/h1\u003e\u003c/p\u003e","key_press":null,"trial_type":"html-keyboard-response","trial_index":11,"time_elapsed":71891,"internal_node_id":"0.0-3.4-0.4","responseType":"finish","participantID":"cnrr3etv5te3kctmk3eh8tx67d79z27c","conditionNumber":"instant"},{"rt":20739,"responses":"{\"Q0\":8}","trial_type":"survey-likert","trial_index":12,"time_elapsed":92663,"internal_node_id":"0.0-3.4-1.4","responseType":"finish","participantID":"cnrr3etv5te3kctmk3eh8tx67d79z27c","conditionNumber":"instant"},{"rt":null,"stimulus":"\u003cp\u003e\u003ch1\u003eNACGIOR\u003c/h1\u003e\u003c/p\u003e","key_press":null,"trial_type":"html-keyboard-response","trial_index":13,"time_elapsed":96665,"internal_node_id":"0.0-3.5-0.5","responseType":"finish","participantID":"cnrr3etv5te3kctmk3eh8tx67d79z27c","conditionNumber":"instant"},{"rt":2176,"responses":"{\"Q0\":9}","trial_type":"survey-likert","trial_index":14,"time_elapsed":98842,"internal_node_id":"0.0-3.5-1.5","responseType":"finish","participantID":"cnrr3etv5te3kctmk3eh8tx67d79z27c","conditionNumber":"instant"},{"rt":null,"stimulus":"\u003cp\u003e\u003ch1\u003eORAGNIC\u003c/h1\u003e\u003c/p\u003e","key_press":null,"trial_type":"html-keyboard-response","trial_index":15,"time_elapsed":102844,"internal_node_id":"0.0-3.6-0.6","responseType":"finish","participantID":"cnrr3etv5te3kctmk3eh8tx67d79z27c","conditionNumber":"instant"},{"rt":3107,"responses":"{\"Q0\":9}","trial_type":"survey-likert","trial_index":16,"time_elapsed":105953,"internal_node_id":"0.0-3.6-1.6","responseType":"finish","participantID":"cnrr3etv5te3kctmk3eh8tx67d79z27c","conditionNumber":"instant"},{"rt":5559,"responses":"{\"Q0\":9}","trial_type":"survey-likert","trial_index":17,"time_elapsed":111513,"internal_node_id":"0.0-4.0","responseType":"finish","participantID":"cnrr3etv5te3kctmk3eh8tx67d79z27c","conditionNumber":"instant"}],"__v":0}
{"_id":{"$oid":"5d5ee096e11f40000416bedc"},"data":{"responseType":"start","participantID":"tn6njjnhw38txprd18z7ttaoxsp08tq7","conditionNumber":"sequential"},"__v":0}
{"_id":{"$oid":"5d5ee0f1e11f40000416bedd"},"data":[{"rt":4423,"responses":"{\"Q0\":\" I consent to participate \"}","trial_type":"survey-multi-choice","trial_index":0,"time_elapsed":4428,"internal_node_id":"0.0-0.0","responseType":"finish","participantID":"xv6loaw6s1urgbae59he1ukmz28vg0t1","conditionNumber":"instant"},{"trial_type":"call-function","trial_index":1,"time_elapsed":4432,"internal_node_id":"0.0-1.0","responseType":"finish","participantID":"xv6loaw6s1urgbae59he1ukmz28vg0t1","conditionNumber":"instant"},{"view_history":"[{\"page_index\":0,\"viewing_time\":46255},{\"page_index\":1,\"viewing_time\":43209}]","rt":89465,"trial_type":"instructions","trial_index":2,"time_elapsed":93898,"internal_node_id":"0.0-2.0","responseType":"finish","participantID":"xv6loaw6s1urgbae59he1ukmz28vg0t1","conditionNumber":"instant"},{"rt":null,"stimulus":"\u003cp\u003e\u003ch1\u003eRAGOCIN\u003c/h1\u003e\u003c/p\u003e","key_press":null,"trial_type":"html-keyboard-response","trial_index":3,"time_elapsed":97902,"internal_node_id":"0.0-3.0-0.0","responseType":"finish","participantID":"xv6loaw6s1urgbae59he1ukmz28vg0t1","conditionNumber":"instant"},{"rt":3570,"responses":"{\"Q0\":1}","trial_type":"survey-likert","trial_index":4,"time_elapsed":101475,"internal_node_id":"0.0-3.0-1.0","responseType":"finish","participantID":"xv6loaw6s1urgbae59he1ukmz28vg0t1","conditionNumber":"instant"},{"rt":null,"stimulus":"\u003cp\u003e\u003ch1\u003eOCRAIGN\u003c/h1\u003e\u003c/p\u003e","key_press":null,"trial_type":"html-keyboard-response","trial_index":5,"time_elapsed":105481,"internal_node_id":"0.0-3.1-0.1","responseType":"finish","participantID":"xv6loaw6s1urgbae59he1ukmz28vg0t1","conditionNumber":"instant"},{"rt":1900,"responses":"{\"Q0\":1}","trial_type":"survey-likert","trial_index":6,"time_elapsed":107383,"internal_node_id":"0.0-3.1-1.1","responseType":"finish","participantID":"xv6loaw6s1urgbae59he1ukmz28vg0t1","conditionNumber":"instant"},{"rt":null,"stimulus":"\u003cp\u003e\u003ch1\u003eGRCINOA\u003c/h1\u003e\u003c/p\u003e","key_press":null,"trial_type":"html-keyboard-response","trial_index":7,"time_elapsed":111386,"internal_node_id":"0.0-3.2-0.2","responseType":"finish","participantID":"xv6loaw6s1urgbae59he1ukmz28vg0t1","conditionNumber":"instant"},{"rt":1630,"responses":"{\"Q0\":1}","trial_type":"survey-likert","trial_index":8,"time_elapsed":113017,"internal_node_id":"0.0-3.2-1.2","responseType":"finish","participantID":"xv6loaw6s1urgbae59he1ukmz28vg0t1","conditionNumber":"instant"},{"rt":null,"stimulus":"\u003cp\u003e\u003ch1\u003eCROAIGN\u003c/h1\u003e\u003c/p\u003e","key_press":null,"trial_type":"html-keyboard-response","trial_index":9,"time_elapsed":117021,"internal_node_id":"0.0-3.3-0.3","responseType":"finish","participantID":"xv6loaw6s1urgbae59he1ukmz28vg0t1","conditionNumber":"instant"},{"rt":2048,"responses":"{\"Q0\":1}","trial_type":"survey-likert","trial_index":10,"time_elapsed":119070,"internal_node_id":"0.0-3.3-1.3","responseType":"finish","participantID":"xv6loaw6s1urgbae59he1ukmz28vg0t1","conditionNumber":"instant"},{"rt":null,"stimulus":"\u003cp\u003e\u003ch1\u003eAGCORNI\u003c/h1\u003e\u003c/p\u003e","key_press":null,"trial_type":"html-keyboard-response","trial_index":11,"time_elapsed":123073,"internal_node_id":"0.0-3.4-0.4","responseType":"finish","participantID":"xv6loaw6s1urgbae59he1ukmz28vg0t1","conditionNumber":"instant"},{"rt":2065,"responses":"{\"Q0\":1}","trial_type":"survey-likert","trial_index":12,"time_elapsed":125141,"internal_node_id":"0.0-3.4-1.4","responseType":"finish","participantID":"xv6loaw6s1urgbae59he1ukmz28vg0t1","conditionNumber":"instant"},{"rt":null,"stimulus":"\u003cp\u003e\u003ch1\u003eNACGIOR\u003c/h1\u003e\u003c/p\u003e","key_press":null,"trial_type":"html-keyboard-response","trial_index":13,"time_elapsed":129144,"internal_node_id":"0.0-3.5-0.5","responseType":"finish","participantID":"xv6loaw6s1urgbae59he1ukmz28vg0t1","conditionNumber":"instant"},{"rt":1897,"responses":"{\"Q0\":1}","trial_type":"survey-likert","trial_index":14,"time_elapsed":131043,"internal_node_id":"0.0-3.5-1.5","responseType":"finish","participantID":"xv6loaw6s1urgbae59he1ukmz28vg0t1","conditionNumber":"instant"},{"rt":null,"stimulus":"\u003cp\u003e\u003ch1\u003eORAGNIC\u003c/h1\u003e\u003c/p\u003e","key_press":null,"trial_type":"html-keyboard-response","trial_index":15,"time_elapsed":135045,"internal_node_id":"0.0-3.6-0.6","responseType":"finish","participantID":"xv6loaw6s1urgbae59he1ukmz28vg0t1","conditionNumber":"instant"},{"rt":2644,"responses":"{\"Q0\":7}","trial_type":"survey-likert","trial_index":16,"time_elapsed":137691,"internal_node_id":"0.0-3.6-1.6","responseType":"finish","participantID":"xv6loaw6s1urgbae59he1ukmz28vg0t1","conditionNumber":"instant"},{"rt":4930,"responses":"{\"Q0\":9}","trial_type":"survey-likert","trial_index":17,"time_elapsed":142623,"internal_node_id":"0.0-4.0","responseType":"finish","participantID":"xv6loaw6s1urgbae59he1ukmz28vg0t1","conditionNumber":"instant"}],"__v":0}
{"_id":{"$oid":"5d5ee0f4e11f40000416bede"},"data":[{"rt":6147,"responses":"{\"Q0\":\" I consent to participate \"}","trial_type":"survey-multi-choice","trial_index":0,"time_elapsed":6154,"internal_node_id":"0.0-0.0","responseType":"finish","participantID":"tn6njjnhw38txprd18z7ttaoxsp08tq7","conditionNumber":"sequential"},{"trial_type":"call-function","trial_index":1,"time_elapsed":6166,"internal_node_id":"0.0-1.0","responseType":"finish","participantID":"tn6njjnhw38txprd18z7ttaoxsp08tq7","conditionNumber":"sequential"},{"view_history":"[{\"page_index\":0,\"viewing_time\":6438},{\"page_index\":1,\"viewing_time\":12152}]","rt":18591,"trial_type":"instructions","trial_index":2,"time_elapsed":24757,"internal_node_id":"0.0-2.0","responseType":"finish","participantID":"tn6njjnhw38txprd18z7ttaoxsp08tq7","conditionNumber":"sequential"},{"rt":null,"stimulus":"\u003cp\u003e\u003ch1\u003eRAGOCIN\u003c/h1\u003e\u003c/p\u003e","key_press":null,"trial_type":"html-keyboard-response","trial_index":3,"time_elapsed":28759,"internal_node_id":"0.0-3.0-0.0","responseType":"finish","participantID":"tn6njjnhw38txprd18z7ttaoxsp08tq7","conditionNumber":"sequential"},{"rt":5227,"responses":"{\"Q0\":2}","trial_type":"survey-likert","trial_index":4,"time_elapsed":33989,"internal_node_id":"0.0-3.0-1.0","responseType":"finish","participantID":"tn6njjnhw38txprd18z7ttaoxsp08tq7","conditionNumber":"sequential"},{"rt":null,"stimulus":"\u003cp\u003e\u003ch1\u003eRAOGCIN\u003c/h1\u003e\u003c/p\u003e","key_press":null,"trial_type":"html-keyboard-response","trial_index":5,"time_elapsed":37991,"internal_node_id":"0.0-3.1-0.1","responseType":"finish","participantID":"tn6njjnhw38txprd18z7ttaoxsp08tq7","conditionNumber":"sequential"},{"rt":4610,"responses":"{\"Q0\":1}","trial_type":"survey-likert","trial_index":6,"time_elapsed":42603,"internal_node_id":"0.0-3.1-1.1","responseType":"finish","participantID":"tn6njjnhw38txprd18z7ttaoxsp08tq7","conditionNumber":"sequential"},{"rt":null,"stimulus":"\u003cp\u003e\u003ch1\u003eROAGCIN\u003c/h1\u003e\u003c/p\u003e","key_press":null,"trial_type":"html-keyboard-response","trial_index":7,"time_elapsed":46606,"internal_node_id":"0.0-3.2-0.2","responseType":"finish","participantID":"tn6njjnhw38txprd18z7ttaoxsp08tq7","conditionNumber":"sequential"},{"rt":9134,"responses":"{\"Q0\":6}","trial_type":"survey-likert","trial_index":8,"time_elapsed":55743,"internal_node_id":"0.0-3.2-1.2","responseType":"finish","participantID":"tn6njjnhw38txprd18z7ttaoxsp08tq7","conditionNumber":"sequential"},{"rt":null,"stimulus":"\u003cp\u003e\u003ch1\u003eORAGCIN\u003c/h1\u003e\u003c/p\u003e","key_press":null,"trial_type":"html-keyboard-response","trial_index":9,"time_elapsed":59746,"internal_node_id":"0.0-3.3-0.3","responseType":"finish","participantID":"tn6njjnhw38txprd18z7ttaoxsp08tq7","conditionNumber":"sequential"},{"rt":5156,"responses":"{\"Q0\":2}","trial_type":"survey-likert","trial_index":10,"time_elapsed":64904,"internal_node_id":"0.0-3.3-1.3","responseType":"finish","participantID":"tn6njjnhw38txprd18z7ttaoxsp08tq7","conditionNumber":"sequential"},{"rt":null,"stimulus":"\u003cp\u003e\u003ch1\u003eORAGCNI\u003c/h1\u003e\u003c/p\u003e","key_press":null,"trial_type":"html-keyboard-response","trial_index":11,"time_elapsed":68907,"internal_node_id":"0.0-3.4-0.4","responseType":"finish","participantID":"tn6njjnhw38txprd18z7ttaoxsp08tq7","conditionNumber":"sequential"},{"rt":6435,"responses":"{\"Q0\":1}","trial_type":"survey-likert","trial_index":12,"time_elapsed":75344,"internal_node_id":"0.0-3.4-1.4","responseType":"finish","participantID":"tn6njjnhw38txprd18z7ttaoxsp08tq7","conditionNumber":"sequential"},{"rt":null,"stimulus":"\u003cp\u003e\u003ch1\u003eORAGNCI\u003c/h1\u003e\u003c/p\u003e","key_press":null,"trial_type":"html-keyboard-response","trial_index":13,"time_elapsed":79347,"internal_node_id":"0.0-3.5-0.5","responseType":"finish","participantID":"tn6njjnhw38txprd18z7ttaoxsp08tq7","conditionNumber":"sequential"},{"rt":3424,"responses":"{\"Q0\":1}","trial_type":"survey-likert","trial_index":14,"time_elapsed":82773,"internal_node_id":"0.0-3.5-1.5","responseType":"finish","participantID":"tn6njjnhw38txprd18z7ttaoxsp08tq7","conditionNumber":"sequential"},{"rt":null,"stimulus":"\u003cp\u003e\u003ch1\u003eORAGNIC\u003c/h1\u003e\u003c/p\u003e","key_press":null,"trial_type":"html-keyboard-response","trial_index":15,"time_elapsed":86774,"internal_node_id":"0.0-3.6-0.6","responseType":"finish","participantID":"tn6njjnhw38txprd18z7ttaoxsp08tq7","conditionNumber":"sequential"},{"rt":6627,"responses":"{\"Q0\":1}","trial_type":"survey-likert","trial_index":16,"time_elapsed":93404,"internal_node_id":"0.0-3.6-1.6","responseType":"finish","participantID":"tn6njjnhw38txprd18z7ttaoxsp08tq7","conditionNumber":"sequential"},{"rt":7287,"responses":"{\"Q0\":0}","trial_type":"survey-likert","trial_index":17,"time_elapsed":100693,"internal_node_id":"0.0-4.0","responseType":"finish","participantID":"tn6njjnhw38txprd18z7ttaoxsp08tq7","conditionNumber":"sequential"}],"__v":0}
{"_id":{"$oid":"5d5ee238e11f40000416bedf"},"data":{"responseType":"start","participantID":"j1nd8k2cu12uw6j2l65nhrwpxe7jm7lw","conditionNumber":"instant"},"__v":0}
{"_id":{"$oid":"5d5ee281e11f40000416bee0"},"data":[{"rt":7887,"responses":"{\"Q0\":\" I consent to participate \"}","trial_type":"survey-multi-choice","trial_index":0,"time_elapsed":7891,"internal_node_id":"0.0-0.0","responseType":"finish","participantID":"j1nd8k2cu12uw6j2l65nhrwpxe7jm7lw","conditionNumber":"instant"},{"trial_type":"call-function","trial_index":1,"time_elapsed":7896,"internal_node_id":"0.0-1.0","responseType":"finish","participantID":"j1nd8k2cu12uw6j2l65nhrwpxe7jm7lw","conditionNumber":"instant"},{"view_history":"[{\"page_index\":0,\"viewing_time\":6339},{\"page_index\":1,\"viewing_time\":9441}]","rt":15781,"trial_type":"instructions","trial_index":2,"time_elapsed":23678,"internal_node_id":"0.0-2.0","responseType":"finish","participantID":"j1nd8k2cu12uw6j2l65nhrwpxe7jm7lw","conditionNumber":"instant"},{"rt":null,"stimulus":"\u003cp\u003e\u003ch1\u003eRAGOCIN\u003c/h1\u003e\u003c/p\u003e","key_press":null,"trial_type":"html-keyboard-response","trial_index":3,"time_elapsed":27680,"internal_node_id":"0.0-3.0-0.0","responseType":"finish","participantID":"j1nd8k2cu12uw6j2l65nhrwpxe7jm7lw","conditionNumber":"instant"},{"rt":2994,"responses":"{\"Q0\":2}","trial_type":"survey-likert","trial_index":4,"time_elapsed":30675,"internal_node_id":"0.0-3.0-1.0","responseType":"finish","participantID":"j1nd8k2cu12uw6j2l65nhrwpxe7jm7lw","conditionNumber":"instant"},{"rt":null,"stimulus":"\u003cp\u003e\u003ch1\u003eOCRAIGN\u003c/h1\u003e\u003c/p\u003e","key_press":null,"trial_type":"html-keyboard-response","trial_index":5,"time_elapsed":34677,"internal_node_id":"0.0-3.1-0.1","responseType":"finish","participantID":"j1nd8k2cu12uw6j2l65nhrwpxe7jm7lw","conditionNumber":"instant"},{"rt":1504,"responses":"{\"Q0\":1}","trial_type":"survey-likert","trial_index":6,"time_elapsed":36185,"internal_node_id":"0.0-3.1-1.1","responseType":"finish","participantID":"j1nd8k2cu12uw6j2l65nhrwpxe7jm7lw","conditionNumber":"instant"},{"rt":null,"stimulus":"\u003cp\u003e\u003ch1\u003eGRCINOA\u003c/h1\u003e\u003c/p\u003e","key_press":null,"trial_type":"html-keyboard-response","trial_index":7,"time_elapsed":40187,"internal_node_id":"0.0-3.2-0.2","responseType":"finish","participantID":"j1nd8k2cu12uw6j2l65nhrwpxe7jm7lw","conditionNumber":"instant"},{"rt":2376,"responses":"{\"Q0\":1}","trial_type":"survey-likert","trial_index":8,"time_elapsed":42564,"internal_node_id":"0.0-3.2-1.2","responseType":"finish","participantID":"j1nd8k2cu12uw6j2l65nhrwpxe7jm7lw","conditionNumber":"instant"},{"rt":null,"stimulus":"\u003cp\u003e\u003ch1\u003eCROAIGN\u003c/h1\u003e\u003c/p\u003e","key_press":null,"trial_type":"html-keyboard-response","trial_index":9,"time_elapsed":46565,"internal_node_id":"0.0-3.3-0.3","responseType":"finish","participantID":"j1nd8k2cu12uw6j2l65nhrwpxe7jm7lw","conditionNumber":"instant"},{"rt":5919,"responses":"{\"Q0\":2}","trial_type":"survey-likert","trial_index":10,"time_elapsed":52485,"internal_node_id":"0.0-3.3-1.3","responseType":"finish","participantID":"j1nd8k2cu12uw6j2l65nhrwpxe7jm7lw","conditionNumber":"instant"},{"rt":null,"stimulus":"\u003cp\u003e\u003ch1\u003eAGCORNI\u003c/h1\u003e\u003c/p\u003e","key_press":null,"trial_type":"html-keyboard-response","trial_index":11,"time_elapsed":56486,"internal_node_id":"0.0-3.4-0.4","responseType":"finish","participantID":"j1nd8k2cu12uw6j2l65nhrwpxe7jm7lw","conditionNumber":"instant"},{"rt":5880,"responses":"{\"Q0\":2}","trial_type":"survey-likert","trial_index":12,"time_elapsed":62368,"internal_node_id":"0.0-3.4-1.4","responseType":"finish","participantID":"j1nd8k2cu12uw6j2l65nhrwpxe7jm7lw","conditionNumber":"instant"},{"rt":null,"stimulus":"\u003cp\u003e\u003ch1\u003eNACGIOR\u003c/h1\u003e\u003c/p\u003e","key_press":null,"trial_type":"html-keyboard-response","trial_index":13,"time_elapsed":66370,"internal_node_id":"0.0-3.5-0.5","responseType":"finish","participantID":"j1nd8k2cu12uw6j2l65nhrwpxe7jm7lw","conditionNumber":"instant"},{"rt":1527,"responses":"{\"Q0\":1}","trial_type":"survey-likert","trial_index":14,"time_elapsed":67899,"internal_node_id":"0.0-3.5-1.5","responseType":"finish","participantID":"j1nd8k2cu12uw6j2l65nhrwpxe7jm7lw","conditionNumber":"instant"},{"rt":null,"stimulus":"\u003cp\u003e\u003ch1\u003eORAGNIC\u003c/h1\u003e\u003c/p\u003e","key_press":null,"trial_type":"html-keyboard-response","trial_index":15,"time_elapsed":71900,"internal_node_id":"0.0-3.6-0.6","responseType":"finish","participantID":"j1nd8k2cu12uw6j2l65nhrwpxe7jm7lw","conditionNumber":"instant"},{"rt":1707,"responses":"{\"Q0\":9}","trial_type":"survey-likert","trial_index":16,"time_elapsed":73608,"internal_node_id":"0.0-3.6-1.6","responseType":"finish","participantID":"j1nd8k2cu12uw6j2l65nhrwpxe7jm7lw","conditionNumber":"instant"},{"rt":6514,"responses":"{\"Q0\":9}","trial_type":"survey-likert","trial_index":17,"time_elapsed":80125,"internal_node_id":"0.0-4.0","responseType":"finish","participantID":"j1nd8k2cu12uw6j2l65nhrwpxe7jm7lw","conditionNumber":"instant"}],"__v":0}
{"_id":{"$oid":"5d5ee556e11f40000416bee1"},"data":{"responseType":"start","participantID":"7h96c60mgyos5nlpmp1f8c5zen618xvx","conditionNumber":"instant"},"__v":0}
{"_id":{"$oid":"5d5ee58de11f40000416bee2"},"data":[{"rt":2942,"responses":"{\"Q0\":\" I consent to participate \"}","trial_type":"survey-multi-choice","trial_index":0,"time_elapsed":2945,"internal_node_id":"0.0-0.0","responseType":"finish","participantID":"7h96c60mgyos5nlpmp1f8c5zen618xvx","conditionNumber":"instant"},{"trial_type":"call-function","trial_index":1,"time_elapsed":2949,"internal_node_id":"0.0-1.0","responseType":"finish","participantID":"7h96c60mgyos5nlpmp1f8c5zen618xvx","conditionNumber":"instant"},{"view_history":"[{\"page_index\":0,\"viewing_time\":2680},{\"page_index\":1,\"viewing_time\":2337}]","rt":5018,"trial_type":"instructions","trial_index":2,"time_elapsed":7967,"internal_node_id":"0.0-2.0","responseType":"finish","participantID":"7h96c60mgyos5nlpmp1f8c5zen618xvx","conditionNumber":"instant"},{"rt":null,"stimulus":"\u003cp\u003e\u003ch1\u003eRAGOCIN\u003c/h1\u003e\u003c/p\u003e","key_press":null,"trial_type":"html-keyboard-response","trial_index":3,"time_elapsed":11970,"internal_node_id":"0.0-3.0-0.0","responseType":"finish","participantID":"7h96c60mgyos5nlpmp1f8c5zen618xvx","conditionNumber":"instant"},{"rt":3189,"responses":"{\"Q0\":1}","trial_type":"survey-likert","trial_index":4,"time_elapsed":15161,"internal_node_id":"0.0-3.0-1.0","responseType":"finish","participantID":"7h96c60mgyos5nlpmp1f8c5zen618xvx","conditionNumber":"instant"},{"rt":null,"stimulus":"\u003cp\u003e\u003ch1\u003eOCRAIGN\u003c/h1\u003e\u003c/p\u003e","key_press":null,"trial_type":"html-keyboard-response","trial_index":5,"time_elapsed":19163,"internal_node_id":"0.0-3.1-0.1","responseType":"finish","participantID":"7h96c60mgyos5nlpmp1f8c5zen618xvx","conditionNumber":"instant"},{"rt":2510,"responses":"{\"Q0\":0}","trial_type":"survey-likert","trial_index":6,"time_elapsed":21675,"internal_node_id":"0.0-3.1-1.1","responseType":"finish","participantID":"7h96c60mgyos5nlpmp1f8c5zen618xvx","conditionNumber":"instant"},{"rt":null,"stimulus":"\u003cp\u003e\u003ch1\u003eGRCINOA\u003c/h1\u003e\u003c/p\u003e","key_press":null,"trial_type":"html-keyboard-response","trial_index":7,"time_elapsed":25676,"internal_node_id":"0.0-3.2-0.2","responseType":"finish","participantID":"7h96c60mgyos5nlpmp1f8c5zen618xvx","conditionNumber":"instant"},{"rt":1739,"responses":"{\"Q0\":0}","trial_type":"survey-likert","trial_index":8,"time_elapsed":27417,"internal_node_id":"0.0-3.2-1.2","responseType":"finish","participantID":"7h96c60mgyos5nlpmp1f8c5zen618xvx","conditionNumber":"instant"},{"rt":null,"stimulus":"\u003cp\u003e\u003ch1\u003eCROAIGN\u003c/h1\u003e\u003c/p\u003e","key_press":null,"trial_type":"html-keyboard-response","trial_index":9,"time_elapsed":31419,"internal_node_id":"0.0-3.3-0.3","responseType":"finish","participantID":"7h96c60mgyos5nlpmp1f8c5zen618xvx","conditionNumber":"instant"},{"rt":4610,"responses":"{\"Q0\":1}","trial_type":"survey-likert","trial_index":10,"time_elapsed":36031,"internal_node_id":"0.0-3.3-1.3","responseType":"finish","participantID":"7h96c60mgyos5nlpmp1f8c5zen618xvx","conditionNumber":"instant"},{"rt":null,"stimulus":"\u003cp\u003e\u003ch1\u003eAGCORNI\u003c/h1\u003e\u003c/p\u003e","key_press":null,"trial_type":"html-keyboard-response","trial_index":11,"time_elapsed":40033,"internal_node_id":"0.0-3.4-0.4","responseType":"finish","participantID":"7h96c60mgyos5nlpmp1f8c5zen618xvx","conditionNumber":"instant"},{"rt":2858,"responses":"{\"Q0\":2}","trial_type":"survey-likert","trial_index":12,"time_elapsed":42893,"internal_node_id":"0.0-3.4-1.4","responseType":"finish","participantID":"7h96c60mgyos5nlpmp1f8c5zen618xvx","conditionNumber":"instant"},{"rt":null,"stimulus":"\u003cp\u003e\u003ch1\u003eNACGIOR\u003c/h1\u003e\u003c/p\u003e","key_press":null,"trial_type":"html-keyboard-response","trial_index":13,"time_elapsed":46895,"internal_node_id":"0.0-3.5-0.5","responseType":"finish","participantID":"7h96c60mgyos5nlpmp1f8c5zen618xvx","conditionNumber":"instant"},{"rt":1844,"responses":"{\"Q0\":1}","trial_type":"survey-likert","trial_index":14,"time_elapsed":48741,"internal_node_id":"0.0-3.5-1.5","responseType":"finish","participantID":"7h96c60mgyos5nlpmp1f8c5zen618xvx","conditionNumber":"instant"},{"rt":null,"stimulus":"\u003cp\u003e\u003ch1\u003eORAGNIC\u003c/h1\u003e\u003c/p\u003e","key_press":null,"trial_type":"html-keyboard-response","trial_index":15,"time_elapsed":52743,"internal_node_id":"0.0-3.6-0.6","responseType":"finish","participantID":"7h96c60mgyos5nlpmp1f8c5zen618xvx","conditionNumber":"instant"},{"rt":1752,"responses":"{\"Q0\":9}","trial_type":"survey-likert","trial_index":16,"time_elapsed":54496,"internal_node_id":"0.0-3.6-1.6","responseType":"finish","participantID":"7h96c60mgyos5nlpmp1f8c5zen618xvx","conditionNumber":"instant"},{"rt":3609,"responses":"{\"Q0\":9}","trial_type":"survey-likert","trial_index":17,"time_elapsed":58106,"internal_node_id":"0.0-4.0","responseType":"finish","participantID":"7h96c60mgyos5nlpmp1f8c5zen618xvx","conditionNumber":"instant"}],"__v":0}
{"_id":{"$oid":"5d5ee99ae11f40000416bee3"},"data":{"responseType":"start","participantID":"7yma9m1y83r2kflba2t8amhfs9ljvor7","conditionNumber":"instant"},"__v":0}
{"_id":{"$oid":"5d5ee9ffe11f40000416bee4"},"data":[{"rt":5411,"responses":"{\"Q0\":\" I consent to participate \"}","trial_type":"survey-multi-choice","trial_index":0,"time_elapsed":5420,"internal_node_id":"0.0-0.0","responseType":"finish","participantID":"7yma9m1y83r2kflba2t8amhfs9ljvor7","conditionNumber":"instant"},{"trial_type":"call-function","trial_index":1,"time_elapsed":5425,"internal_node_id":"0.0-1.0","responseType":"finish","participantID":"7yma9m1y83r2kflba2t8amhfs9ljvor7","conditionNumber":"instant"},{"view_history":"[{\"page_index\":0,\"viewing_time\":12243},{\"page_index\":1,\"viewing_time\":9379}]","rt":21623,"trial_type":"instructions","trial_index":2,"time_elapsed":27049,"internal_node_id":"0.0-2.0","responseType":"finish","participantID":"7yma9m1y83r2kflba2t8amhfs9ljvor7","conditionNumber":"instant"},{"rt":null,"stimulus":"\u003cp\u003e\u003ch1\u003eRAGOCIN\u003c/h1\u003e\u003c/p\u003e","key_press":null,"trial_type":"html-keyboard-response","trial_index":3,"time_elapsed":31060,"internal_node_id":"0.0-3.0-0.0","responseType":"finish","participantID":"7yma9m1y83r2kflba2t8amhfs9ljvor7","conditionNumber":"instant"},{"rt":4200,"responses":"{\"Q0\":0}","trial_type":"survey-likert","trial_index":4,"time_elapsed":35262,"internal_node_id":"0.0-3.0-1.0","responseType":"finish","participantID":"7yma9m1y83r2kflba2t8amhfs9ljvor7","conditionNumber":"instant"},{"rt":null,"stimulus":"\u003cp\u003e\u003ch1\u003eOCRAIGN\u003c/h1\u003e\u003c/p\u003e","key_press":null,"trial_type":"html-keyboard-response","trial_index":5,"time_elapsed":39269,"internal_node_id":"0.0-3.1-0.1","responseType":"finish","participantID":"7yma9m1y83r2kflba2t8amhfs9ljvor7","conditionNumber":"instant"},{"rt":1976,"responses":"{\"Q0\":0}","trial_type":"survey-likert","trial_index":6,"time_elapsed":41246,"internal_node_id":"0.0-3.1-1.1","responseType":"finish","participantID":"7yma9m1y83r2kflba2t8amhfs9ljvor7","conditionNumber":"instant"},{"rt":null,"stimulus":"\u003cp\u003e\u003ch1\u003eGRCINOA\u003c/h1\u003e\u003c/p\u003e","key_press":null,"trial_type":"html-keyboard-response","trial_index":7,"time_elapsed":45250,"internal_node_id":"0.0-3.2-0.2","responseType":"finish","participantID":"7yma9m1y83r2kflba2t8amhfs9ljvor7","conditionNumber":"instant"},{"rt":3650,"responses":"{\"Q0\":0}","trial_type":"survey-likert","trial_index":8,"time_elapsed":48901,"internal_node_id":"0.0-3.2-1.2","responseType":"finish","participantID":"7yma9m1y83r2kflba2t8amhfs9ljvor7","conditionNumber":"instant"},{"rt":null,"stimulus":"\u003cp\u003e\u003ch1\u003eCROAIGN\u003c/h1\u003e\u003c/p\u003e","key_press":null,"trial_type":"html-keyboard-response","trial_index":9,"time_elapsed":52906,"internal_node_id":"0.0-3.3-0.3","responseType":"finish","participantID":"7yma9m1y83r2kflba2t8amhfs9ljvor7","conditionNumber":"instant"},{"rt":12583,"responses":"{\"Q0\":0}","trial_type":"survey-likert","trial_index":10,"time_elapsed":65492,"internal_node_id":"0.0-3.3-1.3","responseType":"finish","participantID":"7yma9m1y83r2kflba2t8amhfs9ljvor7","conditionNumber":"instant"},{"rt":null,"stimulus":"\u003cp\u003e\u003ch1\u003eAGCORNI\u003c/h1\u003e\u003c/p\u003e","key_press":null,"trial_type":"html-keyboard-response","trial_index":11,"time_elapsed":69499,"internal_node_id":"0.0-3.4-0.4","responseType":"finish","participantID":"7yma9m1y83r2kflba2t8amhfs9ljvor7","conditionNumber":"instant"},{"rt":18402,"responses":"{\"Q0\":7}","trial_type":"survey-likert","trial_index":12,"time_elapsed":87904,"internal_node_id":"0.0-3.4-1.4","responseType":"finish","participantID":"7yma9m1y83r2kflba2t8amhfs9ljvor7","conditionNumber":"instant"},{"rt":null,"stimulus":"\u003cp\u003e\u003ch1\u003eNACGIOR\u003c/h1\u003e\u003c/p\u003e","key_press":null,"trial_type":"html-keyboard-response","trial_index":13,"time_elapsed":91919,"internal_node_id":"0.0-3.5-0.5","responseType":"finish","participantID":"7yma9m1y83r2kflba2t8amhfs9ljvor7","conditionNumber":"instant"},{"rt":2098,"responses":"{\"Q0\":9}","trial_type":"survey-likert","trial_index":14,"time_elapsed":94018,"internal_node_id":"0.0-3.5-1.5","responseType":"finish","participantID":"7yma9m1y83r2kflba2t8amhfs9ljvor7","conditionNumber":"instant"},{"rt":null,"stimulus":"\u003cp\u003e\u003ch1\u003eORAGNIC\u003c/h1\u003e\u003c/p\u003e","key_press":null,"trial_type":"html-keyboard-response","trial_index":15,"time_elapsed":98040,"internal_node_id":"0.0-3.6-0.6","responseType":"finish","participantID":"7yma9m1y83r2kflba2t8amhfs9ljvor7","conditionNumber":"instant"},{"rt":2176,"responses":"{\"Q0\":9}","trial_type":"survey-likert","trial_index":16,"time_elapsed":100216,"internal_node_id":"0.0-3.6-1.6","responseType":"finish","participantID":"7yma9m1y83r2kflba2t8amhfs9ljvor7","conditionNumber":"instant"},{"rt":5926,"responses":"{\"Q0\":9}","trial_type":"survey-likert","trial_index":17,"time_elapsed":106143,"internal_node_id":"0.0-4.0","responseType":"finish","participantID":"7yma9m1y83r2kflba2t8amhfs9ljvor7","conditionNumber":"instant"}],"__v":0}
{"_id":{"$oid":"5d5eeea2e11f40000416bee5"},"data":{"responseType":"start","participantID":"lbr2uczz09kt0xmt5szaqpaad46byxgn","conditionNumber":"instant"},"__v":0}
{"_id":{"$oid":"5d5eeef0e11f40000416bee6"},"data":[{"rt":6971,"responses":"{\"Q0\":\" I consent to participate \"}","trial_type":"survey-multi-choice","trial_index":0,"time_elapsed":6985,"internal_node_id":"0.0-0.0","responseType":"finish","participantID":"lbr2uczz09kt0xmt5szaqpaad46byxgn","conditionNumber":"instant"},{"trial_type":"call-function","trial_index":1,"time_elapsed":6995,"internal_node_id":"0.0-1.0","responseType":"finish","participantID":"lbr2uczz09kt0xmt5szaqpaad46byxgn","conditionNumber":"instant"},{"view_history":"[{\"page_index\":0,\"viewing_time\":13197},{\"page_index\":1,\"viewing_time\":3501}]","rt":16700,"trial_type":"instructions","trial_index":2,"time_elapsed":23696,"internal_node_id":"0.0-2.0","responseType":"finish","participantID":"lbr2uczz09kt0xmt5szaqpaad46byxgn","conditionNumber":"instant"},{"rt":null,"stimulus":"\u003cp\u003e\u003ch1\u003eRAGOCIN\u003c/h1\u003e\u003c/p\u003e","key_press":null,"trial_type":"html-keyboard-response","trial_index":3,"time_elapsed":27701,"internal_node_id":"0.0-3.0-0.0","responseType":"finish","participantID":"lbr2uczz09kt0xmt5szaqpaad46byxgn","conditionNumber":"instant"},{"rt":6558,"responses":"{\"Q0\":0}","trial_type":"survey-likert","trial_index":4,"time_elapsed":34265,"internal_node_id":"0.0-3.0-1.0","responseType":"finish","participantID":"lbr2uczz09kt0xmt5szaqpaad46byxgn","conditionNumber":"instant"},{"rt":null,"stimulus":"\u003cp\u003e\u003ch1\u003eOCRAIGN\u003c/h1\u003e\u003c/p\u003e","key_press":null,"trial_type":"html-keyboard-response","trial_index":5,"time_elapsed":38270,"internal_node_id":"0.0-3.1-0.1","responseType":"finish","participantID":"lbr2uczz09kt0xmt5szaqpaad46byxgn","conditionNumber":"instant"},{"rt":3296,"responses":"{\"Q0\":1}","trial_type":"survey-likert","trial_index":6,"time_elapsed":41568,"internal_node_id":"0.0-3.1-1.1","responseType":"finish","participantID":"lbr2uczz09kt0xmt5szaqpaad46byxgn","conditionNumber":"instant"},{"rt":null,"stimulus":"\u003cp\u003e\u003ch1\u003eGRCINOA\u003c/h1\u003e\u003c/p\u003e","key_press":null,"trial_type":"html-keyboard-response","trial_index":7,"time_elapsed":45570,"internal_node_id":"0.0-3.2-0.2","responseType":"finish","participantID":"lbr2uczz09kt0xmt5szaqpaad46byxgn","conditionNumber":"instant"},{"rt":2318,"responses":"{\"Q0\":0}","trial_type":"survey-likert","trial_index":8,"time_elapsed":47890,"internal_node_id":"0.0-3.2-1.2","responseType":"finish","participantID":"lbr2uczz09kt0xmt5szaqpaad46byxgn","conditionNumber":"instant"},{"rt":null,"stimulus":"\u003cp\u003e\u003ch1\u003eCROAIGN\u003c/h1\u003e\u003c/p\u003e","key_press":null,"trial_type":"html-keyboard-response","trial_index":9,"time_elapsed":51892,"internal_node_id":"0.0-3.3-0.3","responseType":"finish","participantID":"lbr2uczz09kt0xmt5szaqpaad46byxgn","conditionNumber":"instant"},{"rt":2512,"responses":"{\"Q0\":1}","trial_type":"survey-likert","trial_index":10,"time_elapsed":54406,"internal_node_id":"0.0-3.3-1.3","responseType":"finish","participantID":"lbr2uczz09kt0xmt5szaqpaad46byxgn","conditionNumber":"instant"},{"rt":null,"stimulus":"\u003cp\u003e\u003ch1\u003eAGCORNI\u003c/h1\u003e\u003c/p\u003e","key_press":null,"trial_type":"html-keyboard-response","trial_index":11,"time_elapsed":58412,"internal_node_id":"0.0-3.4-0.4","responseType":"finish","participantID":"lbr2uczz09kt0xmt5szaqpaad46byxgn","conditionNumber":"instant"},{"rt":4148,"responses":"{\"Q0\":9}","trial_type":"survey-likert","trial_index":12,"time_elapsed":62562,"internal_node_id":"0.0-3.4-1.4","responseType":"finish","participantID":"lbr2uczz09kt0xmt5szaqpaad46byxgn","conditionNumber":"instant"},{"rt":null,"stimulus":"\u003cp\u003e\u003ch1\u003eNACGIOR\u003c/h1\u003e\u003c/p\u003e","key_press":null,"trial_type":"html-keyboard-response","trial_index":13,"time_elapsed":66564,"internal_node_id":"0.0-3.5-0.5","responseType":"finish","participantID":"lbr2uczz09kt0xmt5szaqpaad46byxgn","conditionNumber":"instant"},{"rt":3997,"responses":"{\"Q0\":0}","trial_type":"survey-likert","trial_index":14,"time_elapsed":70563,"internal_node_id":"0.0-3.5-1.5","responseType":"finish","participantID":"lbr2uczz09kt0xmt5szaqpaad46byxgn","conditionNumber":"instant"},{"rt":null,"stimulus":"\u003cp\u003e\u003ch1\u003eORAGNIC\u003c/h1\u003e\u003c/p\u003e","key_press":null,"trial_type":"html-keyboard-response","trial_index":15,"time_elapsed":74567,"internal_node_id":"0.0-3.6-0.6","responseType":"finish","participantID":"lbr2uczz09kt0xmt5szaqpaad46byxgn","conditionNumber":"instant"},{"rt":3460,"responses":"{\"Q0\":9}","trial_type":"survey-likert","trial_index":16,"time_elapsed":78028,"internal_node_id":"0.0-3.6-1.6","responseType":"finish","participantID":"lbr2uczz09kt0xmt5szaqpaad46byxgn","conditionNumber":"instant"},{"rt":6976,"responses":"{\"Q0\":9}","trial_type":"survey-likert","trial_index":17,"time_elapsed":85007,"internal_node_id":"0.0-4.0","responseType":"finish","participantID":"lbr2uczz09kt0xmt5szaqpaad46byxgn","conditionNumber":"instant"}],"__v":0}
{"_id":{"$oid":"5d5eef55e11f40000416bee7"},"data":{"responseType":"start","participantID":"j4qaweknn57komnhk4h641jf5e4cfo8m","conditionNumber":"instant"},"__v":0}
{"_id":{"$oid":"5d5eeff3e11f40000416bee8"},"data":{"responseType":"start","participantID":"gdrhnoe4dkrxh9j69dr9eu6s29pod4ec","conditionNumber":"sequential"},"__v":0}
{"_id":{"$oid":"5d5ef062e11f40000416bee9"},"data":[{"rt":3314,"responses":"{\"Q0\":\" I consent to participate \"}","trial_type":"survey-multi-choice","trial_index":0,"time_elapsed":3323,"internal_node_id":"0.0-0.0","responseType":"finish","participantID":"gdrhnoe4dkrxh9j69dr9eu6s29pod4ec","conditionNumber":"sequential"},{"trial_type":"call-function","trial_index":1,"time_elapsed":3331,"internal_node_id":"0.0-1.0","responseType":"finish","participantID":"gdrhnoe4dkrxh9j69dr9eu6s29pod4ec","conditionNumber":"sequential"},{"view_history":"[{\"page_index\":0,\"viewing_time\":16250},{\"page_index\":1,\"viewing_time\":1544}]","rt":17795,"trial_type":"instructions","trial_index":2,"time_elapsed":21130,"internal_node_id":"0.0-2.0","responseType":"finish","participantID":"gdrhnoe4dkrxh9j69dr9eu6s29pod4ec","conditionNumber":"sequential"},{"rt":null,"stimulus":"\u003cp\u003e\u003ch1\u003eRAGOCIN\u003c/h1\u003e\u003c/p\u003e","key_press":null,"trial_type":"html-keyboard-response","trial_index":3,"time_elapsed":25151,"internal_node_id":"0.0-3.0-0.0","responseType":"finish","participantID":"gdrhnoe4dkrxh9j69dr9eu6s29pod4ec","conditionNumber":"sequential"},{"rt":6843,"responses":"{\"Q0\":2}","trial_type":"survey-likert","trial_index":4,"time_elapsed":31998,"internal_node_id":"0.0-3.0-1.0","responseType":"finish","participantID":"gdrhnoe4dkrxh9j69dr9eu6s29pod4ec","conditionNumber":"sequential"},{"rt":null,"stimulus":"\u003cp\u003e\u003ch1\u003eRAOGCIN\u003c/h1\u003e\u003c/p\u003e","key_press":null,"trial_type":"html-keyboard-response","trial_index":5,"time_elapsed":36021,"internal_node_id":"0.0-3.1-0.1","responseType":"finish","participantID":"gdrhnoe4dkrxh9j69dr9eu6s29pod4ec","conditionNumber":"sequential"},{"rt":19001,"responses":"{\"Q0\":2}","trial_type":"survey-likert","trial_index":6,"time_elapsed":55025,"internal_node_id":"0.0-3.1-1.1","responseType":"finish","participantID":"gdrhnoe4dkrxh9j69dr9eu6s29pod4ec","conditionNumber":"sequential"},{"rt":null,"stimulus":"\u003cp\u003e\u003ch1\u003eROAGCIN\u003c/h1\u003e\u003c/p\u003e","key_press":null,"trial_type":"html-keyboard-response","trial_index":7,"time_elapsed":59040,"internal_node_id":"0.0-3.2-0.2","responseType":"finish","participantID":"gdrhnoe4dkrxh9j69dr9eu6s29pod4ec","conditionNumber":"sequential"},{"rt":11076,"responses":"{\"Q0\":5}","trial_type":"survey-likert","trial_index":8,"time_elapsed":70119,"internal_node_id":"0.0-3.2-1.2","responseType":"finish","participantID":"gdrhnoe4dkrxh9j69dr9eu6s29pod4ec","conditionNumber":"sequential"},{"rt":null,"stimulus":"\u003cp\u003e\u003ch1\u003eORAGCIN\u003c/h1\u003e\u003c/p\u003e","key_press":null,"trial_type":"html-keyboard-response","trial_index":9,"time_elapsed":74131,"internal_node_id":"0.0-3.3-0.3","responseType":"finish","participantID":"gdrhnoe4dkrxh9j69dr9eu6s29pod4ec","conditionNumber":"sequential"},{"rt":3717,"responses":"{\"Q0\":8}","trial_type":"survey-likert","trial_index":10,"time_elapsed":77853,"internal_node_id":"0.0-3.3-1.3","responseType":"finish","participantID":"gdrhnoe4dkrxh9j69dr9eu6s29pod4ec","conditionNumber":"sequential"},{"rt":null,"stimulus":"\u003cp\u003e\u003ch1\u003eORAGCNI\u003c/h1\u003e\u003c/p\u003e","key_press":null,"trial_type":"html-keyboard-response","trial_index":11,"time_elapsed":81870,"internal_node_id":"0.0-3.4-0.4","responseType":"finish","participantID":"gdrhnoe4dkrxh9j69dr9eu6s29pod4ec","conditionNumber":"sequential"},{"rt":2149,"responses":"{\"Q0\":9}","trial_type":"survey-likert","trial_index":12,"time_elapsed":84023,"internal_node_id":"0.0-3.4-1.4","responseType":"finish","participantID":"gdrhnoe4dkrxh9j69dr9eu6s29pod4ec","conditionNumber":"sequential"},{"rt":null,"stimulus":"\u003cp\u003e\u003ch1\u003eORAGNCI\u003c/h1\u003e\u003c/p\u003e","key_press":null,"trial_type":"html-keyboard-response","trial_index":13,"time_elapsed":88030,"internal_node_id":"0.0-3.5-0.5","responseType":"finish","participantID":"gdrhnoe4dkrxh9j69dr9eu6s29pod4ec","conditionNumber":"sequential"},{"rt":2658,"responses":"{\"Q0\":9}","trial_type":"survey-likert","trial_index":14,"time_elapsed":90690,"internal_node_id":"0.0-3.5-1.5","responseType":"finish","participantID":"gdrhnoe4dkrxh9j69dr9eu6s29pod4ec","conditionNumber":"sequential"},{"rt":null,"stimulus":"\u003cp\u003e\u003ch1\u003eORAGNIC\u003c/h1\u003e\u003c/p\u003e","key_press":null,"trial_type":"html-keyboard-response","trial_index":15,"time_elapsed":94700,"internal_node_id":"0.0-3.6-0.6","responseType":"finish","participantID":"gdrhnoe4dkrxh9j69dr9eu6s29pod4ec","conditionNumber":"sequential"},{"rt":2100,"responses":"{\"Q0\":9}","trial_type":"survey-likert","trial_index":16,"time_elapsed":96804,"internal_node_id":"0.0-3.6-1.6","responseType":"finish","participantID":"gdrhnoe4dkrxh9j69dr9eu6s29pod4ec","conditionNumber":"sequential"},{"rt":17343,"responses":"{\"Q0\":9}","trial_type":"survey-likert","trial_index":17,"time_elapsed":114152,"internal_node_id":"0.0-4.0","responseType":"finish","participantID":"gdrhnoe4dkrxh9j69dr9eu6s29pod4ec","conditionNumber":"sequential"}],"__v":0}
{"_id":{"$oid":"5d5ef5f5e11f40000416beea"},"data":{"responseType":"start","participantID":"j1pztm16bmkh8sp7fszv4ukfkydckz8k","conditionNumber":"instant"},"__v":0}
{"_id":{"$oid":"5d5ef645e11f40000416beeb"},"data":[{"rt":13307,"responses":"{\"Q0\":\" I consent to participate \"}","trial_type":"survey-multi-choice","trial_index":0,"time_elapsed":13336,"internal_node_id":"0.0-0.0","responseType":"finish","participantID":"j1pztm16bmkh8sp7fszv4ukfkydckz8k","conditionNumber":"instant"},{"trial_type":"call-function","trial_index":1,"time_elapsed":13360,"internal_node_id":"0.0-1.0","responseType":"finish","participantID":"j1pztm16bmkh8sp7fszv4ukfkydckz8k","conditionNumber":"instant"},{"view_history":"[{\"page_index\":0,\"viewing_time\":13375},{\"page_index\":1,\"viewing_time\":9367}]","rt":22746,"trial_type":"instructions","trial_index":2,"time_elapsed":36108,"internal_node_id":"0.0-2.0","responseType":"finish","participantID":"j1pztm16bmkh8sp7fszv4ukfkydckz8k","conditionNumber":"instant"},{"rt":null,"stimulus":"\u003cp\u003e\u003ch1\u003eRAGOCIN\u003c/h1\u003e\u003c/p\u003e","key_press":null,"trial_type":"html-keyboard-response","trial_index":3,"time_elapsed":40115,"internal_node_id":"0.0-3.0-0.0","responseType":"finish","participantID":"j1pztm16bmkh8sp7fszv4ukfkydckz8k","conditionNumber":"instant"},{"rt":4759,"responses":"{\"Q0\":0}","trial_type":"survey-likert","trial_index":4,"time_elapsed":44881,"internal_node_id":"0.0-3.0-1.0","responseType":"finish","participantID":"j1pztm16bmkh8sp7fszv4ukfkydckz8k","conditionNumber":"instant"},{"rt":null,"stimulus":"\u003cp\u003e\u003ch1\u003eOCRAIGN\u003c/h1\u003e\u003c/p\u003e","key_press":null,"trial_type":"html-keyboard-response","trial_index":5,"time_elapsed":48893,"internal_node_id":"0.0-3.1-0.1","responseType":"finish","participantID":"j1pztm16bmkh8sp7fszv4ukfkydckz8k","conditionNumber":"instant"},{"rt":2258,"responses":"{\"Q0\":0}","trial_type":"survey-likert","trial_index":6,"time_elapsed":51155,"internal_node_id":"0.0-3.1-1.1","responseType":"finish","participantID":"j1pztm16bmkh8sp7fszv4ukfkydckz8k","conditionNumber":"instant"},{"rt":null,"stimulus":"\u003cp\u003e\u003ch1\u003eGRCINOA\u003c/h1\u003e\u003c/p\u003e","key_press":null,"trial_type":"html-keyboard-response","trial_index":7,"time_elapsed":55161,"internal_node_id":"0.0-3.2-0.2","responseType":"finish","participantID":"j1pztm16bmkh8sp7fszv4ukfkydckz8k","conditionNumber":"instant"},{"rt":3890,"responses":"{\"Q0\":9}","trial_type":"survey-likert","trial_index":8,"time_elapsed":59055,"internal_node_id":"0.0-3.2-1.2","responseType":"finish","participantID":"j1pztm16bmkh8sp7fszv4ukfkydckz8k","conditionNumber":"instant"},{"rt":null,"stimulus":"\u003cp\u003e\u003ch1\u003eCROAIGN\u003c/h1\u003e\u003c/p\u003e","key_press":null,"trial_type":"html-keyboard-response","trial_index":9,"time_elapsed":63061,"internal_node_id":"0.0-3.3-0.3","responseType":"finish","participantID":"j1pztm16bmkh8sp7fszv4ukfkydckz8k","conditionNumber":"instant"},{"rt":2460,"responses":"{\"Q0\":9}","trial_type":"survey-likert","trial_index":10,"time_elapsed":65526,"internal_node_id":"0.0-3.3-1.3","responseType":"finish","participantID":"j1pztm16bmkh8sp7fszv4ukfkydckz8k","conditionNumber":"instant"},{"rt":null,"stimulus":"\u003cp\u003e\u003ch1\u003eAGCORNI\u003c/h1\u003e\u003c/p\u003e","key_press":null,"trial_type":"html-keyboard-response","trial_index":11,"time_elapsed":69531,"internal_node_id":"0.0-3.4-0.4","responseType":"finish","participantID":"j1pztm16bmkh8sp7fszv4ukfkydckz8k","conditionNumber":"instant"},{"rt":3077,"responses":"{\"Q0\":9}","trial_type":"survey-likert","trial_index":12,"time_elapsed":72612,"internal_node_id":"0.0-3.4-1.4","responseType":"finish","participantID":"j1pztm16bmkh8sp7fszv4ukfkydckz8k","conditionNumber":"instant"},{"rt":null,"stimulus":"\u003cp\u003e\u003ch1\u003eNACGIOR\u003c/h1\u003e\u003c/p\u003e","key_press":null,"trial_type":"html-keyboard-response","trial_index":13,"time_elapsed":76618,"internal_node_id":"0.0-3.5-0.5","responseType":"finish","participantID":"j1pztm16bmkh8sp7fszv4ukfkydckz8k","conditionNumber":"instant"},{"rt":2679,"responses":"{\"Q0\":9}","trial_type":"survey-likert","trial_index":14,"time_elapsed":79301,"internal_node_id":"0.0-3.5-1.5","responseType":"finish","participantID":"j1pztm16bmkh8sp7fszv4ukfkydckz8k","conditionNumber":"instant"},{"rt":null,"stimulus":"\u003cp\u003e\u003ch1\u003eORAGNIC\u003c/h1\u003e\u003c/p\u003e","key_press":null,"trial_type":"html-keyboard-response","trial_index":15,"time_elapsed":83307,"internal_node_id":"0.0-3.6-0.6","responseType":"finish","participantID":"j1pztm16bmkh8sp7fszv4ukfkydckz8k","conditionNumber":"instant"},{"rt":2769,"responses":"{\"Q0\":9}","trial_type":"survey-likert","trial_index":16,"time_elapsed":86081,"internal_node_id":"0.0-3.6-1.6","responseType":"finish","participantID":"j1pztm16bmkh8sp7fszv4ukfkydckz8k","conditionNumber":"instant"},{"rt":6772,"responses":"{\"Q0\":0}","trial_type":"survey-likert","trial_index":17,"time_elapsed":92859,"internal_node_id":"0.0-4.0","responseType":"finish","participantID":"j1pztm16bmkh8sp7fszv4ukfkydckz8k","conditionNumber":"instant"}],"__v":0}
{"_id":{"$oid":"5d5ef7a7e11f40000416beec"},"data":{"responseType":"start","participantID":"u00xv28g70l9k6151rqsnvaxfgb56myy","conditionNumber":"sequential"},"__v":0}
{"_id":{"$oid":"5d5ef7f7e11f40000416beed"},"data":[{"rt":3539,"responses":"{\"Q0\":\" I consent to participate \"}","trial_type":"survey-multi-choice","trial_index":0,"time_elapsed":3543,"internal_node_id":"0.0-0.0","responseType":"finish","participantID":"u00xv28g70l9k6151rqsnvaxfgb56myy","conditionNumber":"sequential"},{"trial_type":"call-function","trial_index":1,"time_elapsed":3546,"internal_node_id":"0.0-1.0","responseType":"finish","participantID":"u00xv28g70l9k6151rqsnvaxfgb56myy","conditionNumber":"sequential"},{"view_history":"[{\"page_index\":0,\"viewing_time\":15499},{\"page_index\":1,\"viewing_time\":11711}]","rt":27211,"trial_type":"instructions","trial_index":2,"time_elapsed":30758,"internal_node_id":"0.0-2.0","responseType":"finish","participantID":"u00xv28g70l9k6151rqsnvaxfgb56myy","conditionNumber":"sequential"},{"rt":null,"stimulus":"\u003cp\u003e\u003ch1\u003eRAGOCIN\u003c/h1\u003e\u003c/p\u003e","key_press":null,"trial_type":"html-keyboard-response","trial_index":3,"time_elapsed":34776,"internal_node_id":"0.0-3.0-0.0","responseType":"finish","participantID":"u00xv28g70l9k6151rqsnvaxfgb56myy","conditionNumber":"sequential"},{"rt":4317,"responses":"{\"Q0\":0}","trial_type":"survey-likert","trial_index":4,"time_elapsed":39095,"internal_node_id":"0.0-3.0-1.0","responseType":"finish","participantID":"u00xv28g70l9k6151rqsnvaxfgb56myy","conditionNumber":"sequential"},{"rt":null,"stimulus":"\u003cp\u003e\u003ch1\u003eRAOGCIN\u003c/h1\u003e\u003c/p\u003e","key_press":null,"trial_type":"html-keyboard-response","trial_index":5,"time_elapsed":43096,"internal_node_id":"0.0-3.1-0.1","responseType":"finish","participantID":"u00xv28g70l9k6151rqsnvaxfgb56myy","conditionNumber":"sequential"},{"rt":2804,"responses":"{\"Q0\":0}","trial_type":"survey-likert","trial_index":6,"time_elapsed":45902,"internal_node_id":"0.0-3.1-1.1","responseType":"finish","participantID":"u00xv28g70l9k6151rqsnvaxfgb56myy","conditionNumber":"sequential"},{"rt":null,"stimulus":"\u003cp\u003e\u003ch1\u003eROAGCIN\u003c/h1\u003e\u003c/p\u003e","key_press":null,"trial_type":"html-keyboard-response","trial_index":7,"time_elapsed":49907,"internal_node_id":"0.0-3.2-0.2","responseType":"finish","participantID":"u00xv28g70l9k6151rqsnvaxfgb56myy","conditionNumber":"sequential"},{"rt":2169,"responses":"{\"Q0\":0}","trial_type":"survey-likert","trial_index":8,"time_elapsed":52077,"internal_node_id":"0.0-3.2-1.2","responseType":"finish","participantID":"u00xv28g70l9k6151rqsnvaxfgb56myy","conditionNumber":"sequential"},{"rt":null,"stimulus":"\u003cp\u003e\u003ch1\u003eORAGCIN\u003c/h1\u003e\u003c/p\u003e","key_press":null,"trial_type":"html-keyboard-response","trial_index":9,"time_elapsed":56097,"internal_node_id":"0.0-3.3-0.3","responseType":"finish","participantID":"u00xv28g70l9k6151rqsnvaxfgb56myy","conditionNumber":"sequential"},{"rt":2314,"responses":"{\"Q0\":1}","trial_type":"survey-likert","trial_index":10,"time_elapsed":58411,"internal_node_id":"0.0-3.3-1.3","responseType":"finish","participantID":"u00xv28g70l9k6151rqsnvaxfgb56myy","conditionNumber":"sequential"},{"rt":null,"stimulus":"\u003cp\u003e\u003ch1\u003eORAGCNI\u003c/h1\u003e\u003c/p\u003e","key_press":null,"trial_type":"html-keyboard-response","trial_index":11,"time_elapsed":62422,"internal_node_id":"0.0-3.4-0.4","responseType":"finish","participantID":"u00xv28g70l9k6151rqsnvaxfgb56myy","conditionNumber":"sequential"},{"rt":3345,"responses":"{\"Q0\":0}","trial_type":"survey-likert","trial_index":12,"time_elapsed":65769,"internal_node_id":"0.0-3.4-1.4","responseType":"finish","participantID":"u00xv28g70l9k6151rqsnvaxfgb56myy","conditionNumber":"sequential"},{"rt":null,"stimulus":"\u003cp\u003e\u003ch1\u003eORAGNCI\u003c/h1\u003e\u003c/p\u003e","key_press":null,"trial_type":"html-keyboard-response","trial_index":13,"time_elapsed":69782,"internal_node_id":"0.0-3.5-0.5","responseType":"finish","participantID":"u00xv28g70l9k6151rqsnvaxfgb56myy","conditionNumber":"sequential"},{"rt":2688,"responses":"{\"Q0\":1}","trial_type":"survey-likert","trial_index":14,"time_elapsed":72476,"internal_node_id":"0.0-3.5-1.5","responseType":"finish","participantID":"u00xv28g70l9k6151rqsnvaxfgb56myy","conditionNumber":"sequential"},{"rt":null,"stimulus":"\u003cp\u003e\u003ch1\u003eORAGNIC\u003c/h1\u003e\u003c/p\u003e","key_press":null,"trial_type":"html-keyboard-response","trial_index":15,"time_elapsed":76492,"internal_node_id":"0.0-3.6-0.6","responseType":"finish","participantID":"u00xv28g70l9k6151rqsnvaxfgb56myy","conditionNumber":"sequential"},{"rt":2289,"responses":"{\"Q0\":9}","trial_type":"survey-likert","trial_index":16,"time_elapsed":78785,"internal_node_id":"0.0-3.6-1.6","responseType":"finish","participantID":"u00xv28g70l9k6151rqsnvaxfgb56myy","conditionNumber":"sequential"},{"rt":5308,"responses":"{\"Q0\":9}","trial_type":"survey-likert","trial_index":17,"time_elapsed":84095,"internal_node_id":"0.0-4.0","responseType":"finish","participantID":"u00xv28g70l9k6151rqsnvaxfgb56myy","conditionNumber":"sequential"}],"__v":0}
{"_id":{"$oid":"5d5f09df8f25e50004dc54fd"},"data":{"responseType":"start","participantID":"3mx1g8n5u0rp21pkf5vf67ut41jlsoht","conditionNumber":"instant"},"__v":0}
{"_id":{"$oid":"5d5f0a1f8f25e50004dc54fe"},"data":[{"rt":5347,"responses":"{\"Q0\":\" I consent to participate \"}","trial_type":"survey-multi-choice","trial_index":0,"time_elapsed":5356,"internal_node_id":"0.0-0.0","responseType":"finish","participantID":"3mx1g8n5u0rp21pkf5vf67ut41jlsoht","conditionNumber":"instant"},{"trial_type":"call-function","trial_index":1,"time_elapsed":5365,"internal_node_id":"0.0-1.0","responseType":"finish","participantID":"3mx1g8n5u0rp21pkf5vf67ut41jlsoht","conditionNumber":"instant"},{"view_history":"[{\"page_index\":0,\"viewing_time\":4082},{\"page_index\":1,\"viewing_time\":7385}]","rt":11469,"trial_type":"instructions","trial_index":2,"time_elapsed":16834,"internal_node_id":"0.0-2.0","responseType":"finish","participantID":"3mx1g8n5u0rp21pkf5vf67ut41jlsoht","conditionNumber":"instant"},{"rt":null,"stimulus":"\u003cp\u003e\u003ch1\u003eRAGOCIN\u003c/h1\u003e\u003c/p\u003e","key_press":null,"trial_type":"html-keyboard-response","trial_index":3,"time_elapsed":20837,"internal_node_id":"0.0-3.0-0.0","responseType":"finish","participantID":"3mx1g8n5u0rp21pkf5vf67ut41jlsoht","conditionNumber":"instant"},{"rt":3724,"responses":"{\"Q0\":1}","trial_type":"survey-likert","trial_index":4,"time_elapsed":24564,"internal_node_id":"0.0-3.0-1.0","responseType":"finish","participantID":"3mx1g8n5u0rp21pkf5vf67ut41jlsoht","conditionNumber":"instant"},{"rt":null,"stimulus":"\u003cp\u003e\u003ch1\u003eOCRAIGN\u003c/h1\u003e\u003c/p\u003e","key_press":null,"trial_type":"html-keyboard-response","trial_index":5,"time_elapsed":28566,"internal_node_id":"0.0-3.1-0.1","responseType":"finish","participantID":"3mx1g8n5u0rp21pkf5vf67ut41jlsoht","conditionNumber":"instant"},{"rt":3766,"responses":"{\"Q0\":1}","trial_type":"survey-likert","trial_index":6,"time_elapsed":32334,"internal_node_id":"0.0-3.1-1.1","responseType":"finish","participantID":"3mx1g8n5u0rp21pkf5vf67ut41jlsoht","conditionNumber":"instant"},{"rt":null,"stimulus":"\u003cp\u003e\u003ch1\u003eGRCINOA\u003c/h1\u003e\u003c/p\u003e","key_press":null,"trial_type":"html-keyboard-response","trial_index":7,"time_elapsed":36336,"internal_node_id":"0.0-3.2-0.2","responseType":"finish","participantID":"3mx1g8n5u0rp21pkf5vf67ut41jlsoht","conditionNumber":"instant"},{"rt":2054,"responses":"{\"Q0\":1}","trial_type":"survey-likert","trial_index":8,"time_elapsed":38391,"internal_node_id":"0.0-3.2-1.2","responseType":"finish","participantID":"3mx1g8n5u0rp21pkf5vf67ut41jlsoht","conditionNumber":"instant"},{"rt":null,"stimulus":"\u003cp\u003e\u003ch1\u003eCROAIGN\u003c/h1\u003e\u003c/p\u003e","key_press":null,"trial_type":"html-keyboard-response","trial_index":9,"time_elapsed":42393,"internal_node_id":"0.0-3.3-0.3","responseType":"finish","participantID":"3mx1g8n5u0rp21pkf5vf67ut41jlsoht","conditionNumber":"instant"},{"rt":2750,"responses":"{\"Q0\":1}","trial_type":"survey-likert","trial_index":10,"time_elapsed":45145,"internal_node_id":"0.0-3.3-1.3","responseType":"finish","participantID":"3mx1g8n5u0rp21pkf5vf67ut41jlsoht","conditionNumber":"instant"},{"rt":null,"stimulus":"\u003cp\u003e\u003ch1\u003eAGCORNI\u003c/h1\u003e\u003c/p\u003e","key_press":null,"trial_type":"html-keyboard-response","trial_index":11,"time_elapsed":49146,"internal_node_id":"0.0-3.4-0.4","responseType":"finish","participantID":"3mx1g8n5u0rp21pkf5vf67ut41jlsoht","conditionNumber":"instant"},{"rt":2903,"responses":"{\"Q0\":0}","trial_type":"survey-likert","trial_index":12,"time_elapsed":52052,"internal_node_id":"0.0-3.4-1.4","responseType":"finish","participantID":"3mx1g8n5u0rp21pkf5vf67ut41jlsoht","conditionNumber":"instant"},{"rt":null,"stimulus":"\u003cp\u003e\u003ch1\u003eNACGIOR\u003c/h1\u003e\u003c/p\u003e","key_press":null,"trial_type":"html-keyboard-response","trial_index":13,"time_elapsed":56054,"internal_node_id":"0.0-3.5-0.5","responseType":"finish","participantID":"3mx1g8n5u0rp21pkf5vf67ut41jlsoht","conditionNumber":"instant"},{"rt":3399,"responses":"{\"Q0\":0}","trial_type":"survey-likert","trial_index":14,"time_elapsed":59456,"internal_node_id":"0.0-3.5-1.5","responseType":"finish","participantID":"3mx1g8n5u0rp21pkf5vf67ut41jlsoht","conditionNumber":"instant"},{"rt":null,"stimulus":"\u003cp\u003e\u003ch1\u003eORAGNIC\u003c/h1\u003e\u003c/p\u003e","key_press":null,"trial_type":"html-keyboard-response","trial_index":15,"time_elapsed":63459,"internal_node_id":"0.0-3.6-0.6","responseType":"finish","participantID":"3mx1g8n5u0rp21pkf5vf67ut41jlsoht","conditionNumber":"instant"},{"rt":1892,"responses":"{\"Q0\":0}","trial_type":"survey-likert","trial_index":16,"time_elapsed":65353,"internal_node_id":"0.0-3.6-1.6","responseType":"finish","participantID":"3mx1g8n5u0rp21pkf5vf67ut41jlsoht","conditionNumber":"instant"},{"rt":3586,"responses":"{\"Q0\":0}","trial_type":"survey-likert","trial_index":17,"time_elapsed":68942,"internal_node_id":"0.0-4.0","responseType":"finish","participantID":"3mx1g8n5u0rp21pkf5vf67ut41jlsoht","conditionNumber":"instant"}],"__v":0}
{"_id":{"$oid":"5d5f265d364c4400046abbf6"},"data":{"responseType":"start","participantID":"887qz5d4y711pkqpbq9v40vnam8hjhsl","conditionNumber":"instant"},"__v":0}
{"_id":{"$oid":"5d5f26c6364c4400046abbf7"},"data":[{"rt":20969,"responses":"{\"Q0\":\" I consent to participate \"}","trial_type":"survey-multi-choice","trial_index":0,"time_elapsed":21007,"internal_node_id":"0.0-0.0","responseType":"finish","participantID":"887qz5d4y711pkqpbq9v40vnam8hjhsl","conditionNumber":"instant"},{"trial_type":"call-function","trial_index":1,"time_elapsed":21028,"internal_node_id":"0.0-1.0","responseType":"finish","participantID":"887qz5d4y711pkqpbq9v40vnam8hjhsl","conditionNumber":"instant"},{"view_history":"[{\"page_index\":0,\"viewing_time\":19652},{\"page_index\":1,\"viewing_time\":12414}]","rt":32069,"trial_type":"instructions","trial_index":2,"time_elapsed":53101,"internal_node_id":"0.0-2.0","responseType":"finish","participantID":"887qz5d4y711pkqpbq9v40vnam8hjhsl","conditionNumber":"instant"},{"rt":null,"stimulus":"\u003cp\u003e\u003ch1\u003eRAGOCIN\u003c/h1\u003e\u003c/p\u003e","key_press":null,"trial_type":"html-keyboard-response","trial_index":3,"time_elapsed":57108,"internal_node_id":"0.0-3.0-0.0","responseType":"finish","participantID":"887qz5d4y711pkqpbq9v40vnam8hjhsl","conditionNumber":"instant"},{"rt":8819,"responses":"{\"Q0\":3}","trial_type":"survey-likert","trial_index":4,"time_elapsed":65933,"internal_node_id":"0.0-3.0-1.0","responseType":"finish","participantID":"887qz5d4y711pkqpbq9v40vnam8hjhsl","conditionNumber":"instant"},{"rt":null,"stimulus":"\u003cp\u003e\u003ch1\u003eOCRAIGN\u003c/h1\u003e\u003c/p\u003e","key_press":null,"trial_type":"html-keyboard-response","trial_index":5,"time_elapsed":69941,"internal_node_id":"0.0-3.1-0.1","responseType":"finish","participantID":"887qz5d4y711pkqpbq9v40vnam8hjhsl","conditionNumber":"instant"},{"rt":6418,"responses":"{\"Q0\":1}","trial_type":"survey-likert","trial_index":6,"time_elapsed":76364,"internal_node_id":"0.0-3.1-1.1","responseType":"finish","participantID":"887qz5d4y711pkqpbq9v40vnam8hjhsl","conditionNumber":"instant"},{"rt":null,"stimulus":"\u003cp\u003e\u003ch1\u003eGRCINOA\u003c/h1\u003e\u003c/p\u003e","key_press":null,"trial_type":"html-keyboard-response","trial_index":7,"time_elapsed":80370,"internal_node_id":"0.0-3.2-0.2","responseType":"finish","participantID":"887qz5d4y711pkqpbq9v40vnam8hjhsl","conditionNumber":"instant"},{"rt":4150,"responses":"{\"Q0\":1}","trial_type":"survey-likert","trial_index":8,"time_elapsed":84524,"internal_node_id":"0.0-3.2-1.2","responseType":"finish","participantID":"887qz5d4y711pkqpbq9v40vnam8hjhsl","conditionNumber":"instant"},{"rt":null,"stimulus":"\u003cp\u003e\u003ch1\u003eCROAIGN\u003c/h1\u003e\u003c/p\u003e","key_press":null,"trial_type":"html-keyboard-response","trial_index":9,"time_elapsed":88530,"internal_node_id":"0.0-3.3-0.3","responseType":"finish","participantID":"887qz5d4y711pkqpbq9v40vnam8hjhsl","conditionNumber":"instant"},{"rt":4151,"responses":"{\"Q0\":1}","trial_type":"survey-likert","trial_index":10,"time_elapsed":92684,"internal_node_id":"0.0-3.3-1.3","responseType":"finish","participantID":"887qz5d4y711pkqpbq9v40vnam8hjhsl","conditionNumber":"instant"},{"rt":null,"stimulus":"\u003cp\u003e\u003ch1\u003eAGCORNI\u003c/h1\u003e\u003c/p\u003e","key_press":null,"trial_type":"html-keyboard-response","trial_index":11,"time_elapsed":96689,"internal_node_id":"0.0-3.4-0.4","responseType":"finish","participantID":"887qz5d4y711pkqpbq9v40vnam8hjhsl","conditionNumber":"instant"},{"rt":2735,"responses":"{\"Q0\":1}","trial_type":"survey-likert","trial_index":12,"time_elapsed":99429,"internal_node_id":"0.0-3.4-1.4","responseType":"finish","participantID":"887qz5d4y711pkqpbq9v40vnam8hjhsl","conditionNumber":"instant"},{"rt":null,"stimulus":"\u003cp\u003e\u003ch1\u003eNACGIOR\u003c/h1\u003e\u003c/p\u003e","key_press":null,"trial_type":"html-keyboard-response","trial_index":13,"time_elapsed":103439,"internal_node_id":"0.0-3.5-0.5","responseType":"finish","participantID":"887qz5d4y711pkqpbq9v40vnam8hjhsl","conditionNumber":"instant"},{"rt":3003,"responses":"{\"Q0\":1}","trial_type":"survey-likert","trial_index":14,"time_elapsed":106446,"internal_node_id":"0.0-3.5-1.5","responseType":"finish","participantID":"887qz5d4y711pkqpbq9v40vnam8hjhsl","conditionNumber":"instant"},{"rt":null,"stimulus":"\u003cp\u003e\u003ch1\u003eORAGNIC\u003c/h1\u003e\u003c/p\u003e","key_press":null,"trial_type":"html-keyboard-response","trial_index":15,"time_elapsed":110451,"internal_node_id":"0.0-3.6-0.6","responseType":"finish","participantID":"887qz5d4y711pkqpbq9v40vnam8hjhsl","conditionNumber":"instant"},{"rt":6190,"responses":"{\"Q0\":9}","trial_type":"survey-likert","trial_index":16,"time_elapsed":116645,"internal_node_id":"0.0-3.6-1.6","responseType":"finish","participantID":"887qz5d4y711pkqpbq9v40vnam8hjhsl","conditionNumber":"instant"},{"rt":8969,"responses":"{\"Q0\":9}","trial_type":"survey-likert","trial_index":17,"time_elapsed":125622,"internal_node_id":"0.0-4.0","responseType":"finish","participantID":"887qz5d4y711pkqpbq9v40vnam8hjhsl","conditionNumber":"instant"}],"__v":0}
{"_id":{"$oid":"5d5f31cf4e08ae0004cd2ea1"},"data":{"responseType":"start","participantID":"pj0n9fvz9kdcojs9m48dm4kfsf2btl2r","conditionNumber":"instant"},"__v":0}
{"_id":{"$oid":"5d5f323e4e08ae0004cd2ea2"},"data":[{"rt":15111,"responses":"{\"Q0\":\" I consent to participate \"}","trial_type":"survey-multi-choice","trial_index":0,"time_elapsed":15118,"internal_node_id":"0.0-0.0","responseType":"finish","participantID":"pj0n9fvz9kdcojs9m48dm4kfsf2btl2r","conditionNumber":"instant"},{"trial_type":"call-function","trial_index":1,"time_elapsed":15125,"internal_node_id":"0.0-1.0","responseType":"finish","participantID":"pj0n9fvz9kdcojs9m48dm4kfsf2btl2r","conditionNumber":"instant"},{"view_history":"[{\"page_index\":0,\"viewing_time\":16813},{\"page_index\":1,\"viewing_time\":37761}]","rt":54575,"trial_type":"instructions","trial_index":2,"time_elapsed":69701,"internal_node_id":"0.0-2.0","responseType":"finish","participantID":"pj0n9fvz9kdcojs9m48dm4kfsf2btl2r","conditionNumber":"instant"},{"rt":null,"stimulus":"\u003cp\u003e\u003ch1\u003eRAGOCIN\u003c/h1\u003e\u003c/p\u003e","key_press":null,"trial_type":"html-keyboard-response","trial_index":3,"time_elapsed":73705,"internal_node_id":"0.0-3.0-0.0","responseType":"finish","participantID":"pj0n9fvz9kdcojs9m48dm4kfsf2btl2r","conditionNumber":"instant"},{"rt":3719,"responses":"{\"Q0\":5}","trial_type":"survey-likert","trial_index":4,"time_elapsed":77431,"internal_node_id":"0.0-3.0-1.0","responseType":"finish","participantID":"pj0n9fvz9kdcojs9m48dm4kfsf2btl2r","conditionNumber":"instant"},{"rt":null,"stimulus":"\u003cp\u003e\u003ch1\u003eOCRAIGN\u003c/h1\u003e\u003c/p\u003e","key_press":null,"trial_type":"html-keyboard-response","trial_index":5,"time_elapsed":81432,"internal_node_id":"0.0-3.1-0.1","responseType":"finish","participantID":"pj0n9fvz9kdcojs9m48dm4kfsf2btl2r","conditionNumber":"instant"},{"rt":2525,"responses":"{\"Q0\":4}","trial_type":"survey-likert","trial_index":6,"time_elapsed":83962,"internal_node_id":"0.0-3.1-1.1","responseType":"finish","participantID":"pj0n9fvz9kdcojs9m48dm4kfsf2btl2r","conditionNumber":"instant"},{"rt":null,"stimulus":"\u003cp\u003e\u003ch1\u003eGRCINOA\u003c/h1\u003e\u003c/p\u003e","key_press":null,"trial_type":"html-keyboard-response","trial_index":7,"time_elapsed":87964,"internal_node_id":"0.0-3.2-0.2","responseType":"finish","participantID":"pj0n9fvz9kdcojs9m48dm4kfsf2btl2r","conditionNumber":"instant"},{"rt":3822,"responses":"{\"Q0\":4}","trial_type":"survey-likert","trial_index":8,"time_elapsed":91789,"internal_node_id":"0.0-3.2-1.2","responseType":"finish","participantID":"pj0n9fvz9kdcojs9m48dm4kfsf2btl2r","conditionNumber":"instant"},{"rt":null,"stimulus":"\u003cp\u003e\u003ch1\u003eCROAIGN\u003c/h1\u003e\u003c/p\u003e","key_press":null,"trial_type":"html-keyboard-response","trial_index":9,"time_elapsed":95793,"internal_node_id":"0.0-3.3-0.3","responseType":"finish","participantID":"pj0n9fvz9kdcojs9m48dm4kfsf2btl2r","conditionNumber":"instant"},{"rt":3758,"responses":"{\"Q0\":5}","trial_type":"survey-likert","trial_index":10,"time_elapsed":99554,"internal_node_id":"0.0-3.3-1.3","responseType":"finish","participantID":"pj0n9fvz9kdcojs9m48dm4kfsf2btl2r","conditionNumber":"instant"},{"rt":null,"stimulus":"\u003cp\u003e\u003ch1\u003eAGCORNI\u003c/h1\u003e\u003c/p\u003e","key_press":null,"trial_type":"html-keyboard-response","trial_index":11,"time_elapsed":103556,"internal_node_id":"0.0-3.4-0.4","responseType":"finish","participantID":"pj0n9fvz9kdcojs9m48dm4kfsf2btl2r","conditionNumber":"instant"},{"rt":3318,"responses":"{\"Q0\":4}","trial_type":"survey-likert","trial_index":12,"time_elapsed":106876,"internal_node_id":"0.0-3.4-1.4","responseType":"finish","participantID":"pj0n9fvz9kdcojs9m48dm4kfsf2btl2r","conditionNumber":"instant"},{"rt":null,"stimulus":"\u003cp\u003e\u003ch1\u003eNACGIOR\u003c/h1\u003e\u003c/p\u003e","key_press":null,"trial_type":"html-keyboard-response","trial_index":13,"time_elapsed":110879,"internal_node_id":"0.0-3.5-0.5","responseType":"finish","participantID":"pj0n9fvz9kdcojs9m48dm4kfsf2btl2r","conditionNumber":"instant"},{"rt":4010,"responses":"{\"Q0\":4}","trial_type":"survey-likert","trial_index":14,"time_elapsed":114892,"internal_node_id":"0.0-3.5-1.5","responseType":"finish","participantID":"pj0n9fvz9kdcojs9m48dm4kfsf2btl2r","conditionNumber":"instant"},{"rt":null,"stimulus":"\u003cp\u003e\u003ch1\u003eORAGNIC\u003c/h1\u003e\u003c/p\u003e","key_press":null,"trial_type":"html-keyboard-response","trial_index":15,"time_elapsed":118894,"internal_node_id":"0.0-3.6-0.6","responseType":"finish","participantID":"pj0n9fvz9kdcojs9m48dm4kfsf2btl2r","conditionNumber":"instant"},{"rt":2678,"responses":"{\"Q0\":9}","trial_type":"survey-likert","trial_index":16,"time_elapsed":121574,"internal_node_id":"0.0-3.6-1.6","responseType":"finish","participantID":"pj0n9fvz9kdcojs9m48dm4kfsf2btl2r","conditionNumber":"instant"},{"rt":4700,"responses":"{\"Q0\":9}","trial_type":"survey-likert","trial_index":17,"time_elapsed":126275,"internal_node_id":"0.0-4.0","responseType":"finish","participantID":"pj0n9fvz9kdcojs9m48dm4kfsf2btl2r","conditionNumber":"instant"}],"__v":0}
{"_id":{"$oid":"5d5f3ac24e08ae0004cd2ea3"},"data":{"responseType":"start","participantID":"2rtg96lotmokj3vt1a5n9cpwqs51fyq6","conditionNumber":"sequential"},"__v":0}
{"_id":{"$oid":"5d5f3b0e4e08ae0004cd2ea4"},"data":[{"rt":16632,"responses":"{\"Q0\":\" I consent to participate \"}","trial_type":"survey-multi-choice","trial_index":0,"time_elapsed":16659,"internal_node_id":"0.0-0.0","responseType":"finish","participantID":"2rtg96lotmokj3vt1a5n9cpwqs51fyq6","conditionNumber":"sequential"},{"trial_type":"call-function","trial_index":1,"time_elapsed":16666,"internal_node_id":"0.0-1.0","responseType":"finish","participantID":"2rtg96lotmokj3vt1a5n9cpwqs51fyq6","conditionNumber":"sequential"},{"view_history":"[{\"page_index\":0,\"viewing_time\":10381},{\"page_index\":1,\"viewing_time\":11978}]","rt":22359,"trial_type":"instructions","trial_index":2,"time_elapsed":39025,"internal_node_id":"0.0-2.0","responseType":"finish","participantID":"2rtg96lotmokj3vt1a5n9cpwqs51fyq6","conditionNumber":"sequential"},{"rt":null,"stimulus":"\u003cp\u003e\u003ch1\u003eRAGOCIN\u003c/h1\u003e\u003c/p\u003e","key_press":null,"trial_type":"html-keyboard-response","trial_index":3,"time_elapsed":43028,"internal_node_id":"0.0-3.0-0.0","responseType":"finish","participantID":"2rtg96lotmokj3vt1a5n9cpwqs51fyq6","conditionNumber":"sequential"},{"rt":4747,"responses":"{\"Q0\":0}","trial_type":"survey-likert","trial_index":4,"time_elapsed":47778,"internal_node_id":"0.0-3.0-1.0","responseType":"finish","participantID":"2rtg96lotmokj3vt1a5n9cpwqs51fyq6","conditionNumber":"sequential"},{"rt":null,"stimulus":"\u003cp\u003e\u003ch1\u003eRAOGCIN\u003c/h1\u003e\u003c/p\u003e","key_press":null,"trial_type":"html-keyboard-response","trial_index":5,"time_elapsed":51782,"internal_node_id":"0.0-3.1-0.1","responseType":"finish","participantID":"2rtg96lotmokj3vt1a5n9cpwqs51fyq6","conditionNumber":"sequential"},{"rt":2371,"responses":"{\"Q0\":0}","trial_type":"survey-likert","trial_index":6,"time_elapsed":54155,"internal_node_id":"0.0-3.1-1.1","responseType":"finish","participantID":"2rtg96lotmokj3vt1a5n9cpwqs51fyq6","conditionNumber":"sequential"},{"rt":null,"stimulus":"\u003cp\u003e\u003ch1\u003eROAGCIN\u003c/h1\u003e\u003c/p\u003e","key_press":null,"trial_type":"html-keyboard-response","trial_index":7,"time_elapsed":58159,"internal_node_id":"0.0-3.2-0.2","responseType":"finish","participantID":"2rtg96lotmokj3vt1a5n9cpwqs51fyq6","conditionNumber":"sequential"},{"rt":2748,"responses":"{\"Q0\":0}","trial_type":"survey-likert","trial_index":8,"time_elapsed":60909,"internal_node_id":"0.0-3.2-1.2","responseType":"finish","participantID":"2rtg96lotmokj3vt1a5n9cpwqs51fyq6","conditionNumber":"sequential"},{"rt":null,"stimulus":"\u003cp\u003e\u003ch1\u003eORAGCIN\u003c/h1\u003e\u003c/p\u003e","key_press":null,"trial_type":"html-keyboard-response","trial_index":9,"time_elapsed":64913,"internal_node_id":"0.0-3.3-0.3","responseType":"finish","participantID":"2rtg96lotmokj3vt1a5n9cpwqs51fyq6","conditionNumber":"sequential"},{"rt":2548,"responses":"{\"Q0\":0}","trial_type":"survey-likert","trial_index":10,"time_elapsed":67463,"internal_node_id":"0.0-3.3-1.3","responseType":"finish","participantID":"2rtg96lotmokj3vt1a5n9cpwqs51fyq6","conditionNumber":"sequential"},{"rt":null,"stimulus":"\u003cp\u003e\u003ch1\u003eORAGCNI\u003c/h1\u003e\u003c/p\u003e","key_press":null,"trial_type":"html-keyboard-response","trial_index":11,"time_elapsed":71467,"internal_node_id":"0.0-3.4-0.4","responseType":"finish","participantID":"2rtg96lotmokj3vt1a5n9cpwqs51fyq6","conditionNumber":"sequential"},{"rt":2478,"responses":"{\"Q0\":0}","trial_type":"survey-likert","trial_index":12,"time_elapsed":73947,"internal_node_id":"0.0-3.4-1.4","responseType":"finish","participantID":"2rtg96lotmokj3vt1a5n9cpwqs51fyq6","conditionNumber":"sequential"},{"rt":null,"stimulus":"\u003cp\u003e\u003ch1\u003eORAGNCI\u003c/h1\u003e\u003c/p\u003e","key_press":null,"trial_type":"html-keyboard-response","trial_index":13,"time_elapsed":77951,"internal_node_id":"0.0-3.5-0.5","responseType":"finish","participantID":"2rtg96lotmokj3vt1a5n9cpwqs51fyq6","conditionNumber":"sequential"},{"rt":2374,"responses":"{\"Q0\":0}","trial_type":"survey-likert","trial_index":14,"time_elapsed":80327,"internal_node_id":"0.0-3.5-1.5","responseType":"finish","participantID":"2rtg96lotmokj3vt1a5n9cpwqs51fyq6","conditionNumber":"sequential"},{"rt":null,"stimulus":"\u003cp\u003e\u003ch1\u003eORAGNIC\u003c/h1\u003e\u003c/p\u003e","key_press":null,"trial_type":"html-keyboard-response","trial_index":15,"time_elapsed":84331,"internal_node_id":"0.0-3.6-0.6","responseType":"finish","participantID":"2rtg96lotmokj3vt1a5n9cpwqs51fyq6","conditionNumber":"sequential"},{"rt":3142,"responses":"{\"Q0\":9}","trial_type":"survey-likert","trial_index":16,"time_elapsed":87475,"internal_node_id":"0.0-3.6-1.6","responseType":"finish","participantID":"2rtg96lotmokj3vt1a5n9cpwqs51fyq6","conditionNumber":"sequential"},{"rt":5122,"responses":"{\"Q0\":9}","trial_type":"survey-likert","trial_index":17,"time_elapsed":92601,"internal_node_id":"0.0-4.0","responseType":"finish","participantID":"2rtg96lotmokj3vt1a5n9cpwqs51fyq6","conditionNumber":"sequential"}],"__v":0}
{"_id":{"$oid":"5d5f3dfe4e08ae0004cd2ea5"},"data":{"responseType":"start","participantID":"m2f0bq3bqhly712sa7q2gpgzd0r9a5xz","conditionNumber":"sequential"},"__v":0}
{"_id":{"$oid":"5d5f3e714e08ae0004cd2ea6"},"data":[{"rt":6638,"responses":"{\"Q0\":\" I consent to participate \"}","trial_type":"survey-multi-choice","trial_index":0,"time_elapsed":6644,"internal_node_id":"0.0-0.0","responseType":"finish","participantID":"m2f0bq3bqhly712sa7q2gpgzd0r9a5xz","conditionNumber":"sequential"},{"trial_type":"call-function","trial_index":1,"time_elapsed":6649,"internal_node_id":"0.0-1.0","responseType":"finish","participantID":"m2f0bq3bqhly712sa7q2gpgzd0r9a5xz","conditionNumber":"sequential"},{"view_history":"[{\"page_index\":0,\"viewing_time\":40642},{\"page_index\":1,\"viewing_time\":17947}]","rt":58590,"trial_type":"instructions","trial_index":2,"time_elapsed":65239,"internal_node_id":"0.0-2.0","responseType":"finish","participantID":"m2f0bq3bqhly712sa7q2gpgzd0r9a5xz","conditionNumber":"sequential"},{"rt":null,"stimulus":"\u003cp\u003e\u003ch1\u003eRAGOCIN\u003c/h1\u003e\u003c/p\u003e","key_press":null,"trial_type":"html-keyboard-response","trial_index":3,"time_elapsed":69243,"internal_node_id":"0.0-3.0-0.0","responseType":"finish","participantID":"m2f0bq3bqhly712sa7q2gpgzd0r9a5xz","conditionNumber":"sequential"},{"rt":3777,"responses":"{\"Q0\":0}","trial_type":"survey-likert","trial_index":4,"time_elapsed":73022,"internal_node_id":"0.0-3.0-1.0","responseType":"finish","participantID":"m2f0bq3bqhly712sa7q2gpgzd0r9a5xz","conditionNumber":"sequential"},{"rt":null,"stimulus":"\u003cp\u003e\u003ch1\u003eRAOGCIN\u003c/h1\u003e\u003c/p\u003e","key_press":null,"trial_type":"html-keyboard-response","trial_index":5,"time_elapsed":77024,"internal_node_id":"0.0-3.1-0.1","responseType":"finish","participantID":"m2f0bq3bqhly712sa7q2gpgzd0r9a5xz","conditionNumber":"sequential"},{"rt":2736,"responses":"{\"Q0\":1}","trial_type":"survey-likert","trial_index":6,"time_elapsed":79761,"internal_node_id":"0.0-3.1-1.1","responseType":"finish","participantID":"m2f0bq3bqhly712sa7q2gpgzd0r9a5xz","conditionNumber":"sequential"},{"rt":null,"stimulus":"\u003cp\u003e\u003ch1\u003eROAGCIN\u003c/h1\u003e\u003c/p\u003e","key_press":null,"trial_type":"html-keyboard-response","trial_index":7,"time_elapsed":83763,"internal_node_id":"0.0-3.2-0.2","responseType":"finish","participantID":"m2f0bq3bqhly712sa7q2gpgzd0r9a5xz","conditionNumber":"sequential"},{"rt":3361,"responses":"{\"Q0\":2}","trial_type":"survey-likert","trial_index":8,"time_elapsed":87125,"internal_node_id":"0.0-3.2-1.2","responseType":"finish","participantID":"m2f0bq3bqhly712sa7q2gpgzd0r9a5xz","conditionNumber":"sequential"},{"rt":null,"stimulus":"\u003cp\u003e\u003ch1\u003eORAGCIN\u003c/h1\u003e\u003c/p\u003e","key_press":null,"trial_type":"html-keyboard-response","trial_index":9,"time_elapsed":91127,"internal_node_id":"0.0-3.3-0.3","responseType":"finish","participantID":"m2f0bq3bqhly712sa7q2gpgzd0r9a5xz","conditionNumber":"sequential"},{"rt":4529,"responses":"{\"Q0\":2}","trial_type":"survey-likert","trial_index":10,"time_elapsed":95657,"internal_node_id":"0.0-3.3-1.3","responseType":"finish","participantID":"m2f0bq3bqhly712sa7q2gpgzd0r9a5xz","conditionNumber":"sequential"},{"rt":null,"stimulus":"\u003cp\u003e\u003ch1\u003eORAGCNI\u003c/h1\u003e\u003c/p\u003e","key_press":null,"trial_type":"html-keyboard-response","trial_index":11,"time_elapsed":99659,"internal_node_id":"0.0-3.4-0.4","responseType":"finish","participantID":"m2f0bq3bqhly712sa7q2gpgzd0r9a5xz","conditionNumber":"sequential"},{"rt":2943,"responses":"{\"Q0\":2}","trial_type":"survey-likert","trial_index":12,"time_elapsed":102603,"internal_node_id":"0.0-3.4-1.4","responseType":"finish","participantID":"m2f0bq3bqhly712sa7q2gpgzd0r9a5xz","conditionNumber":"sequential"},{"rt":null,"stimulus":"\u003cp\u003e\u003ch1\u003eORAGNCI\u003c/h1\u003e\u003c/p\u003e","key_press":null,"trial_type":"html-keyboard-response","trial_index":13,"time_elapsed":106605,"internal_node_id":"0.0-3.5-0.5","responseType":"finish","participantID":"m2f0bq3bqhly712sa7q2gpgzd0r9a5xz","conditionNumber":"sequential"},{"rt":4963,"responses":"{\"Q0\":2}","trial_type":"survey-likert","trial_index":14,"time_elapsed":111569,"internal_node_id":"0.0-3.5-1.5","responseType":"finish","participantID":"m2f0bq3bqhly712sa7q2gpgzd0r9a5xz","conditionNumber":"sequential"},{"rt":null,"stimulus":"\u003cp\u003e\u003ch1\u003eORAGNIC\u003c/h1\u003e\u003c/p\u003e","key_press":null,"trial_type":"html-keyboard-response","trial_index":15,"time_elapsed":115571,"internal_node_id":"0.0-3.6-0.6","responseType":"finish","participantID":"m2f0bq3bqhly712sa7q2gpgzd0r9a5xz","conditionNumber":"sequential"},{"rt":2311,"responses":"{\"Q0\":9}","trial_type":"survey-likert","trial_index":16,"time_elapsed":117883,"internal_node_id":"0.0-3.6-1.6","responseType":"finish","participantID":"m2f0bq3bqhly712sa7q2gpgzd0r9a5xz","conditionNumber":"sequential"},{"rt":3789,"responses":"{\"Q0\":9}","trial_type":"survey-likert","trial_index":17,"time_elapsed":121673,"internal_node_id":"0.0-4.0","responseType":"finish","participantID":"m2f0bq3bqhly712sa7q2gpgzd0r9a5xz","conditionNumber":"sequential"}],"__v":0}
{"_id":{"$oid":"5d5fd24179527b0004a9d75c"},"data":{"responseType":"start","participantID":"5mtkrzfubfq636c4f2nrakdx9g8qcwam","conditionNumber":"sequential"},"__v":0}
{"_id":{"$oid":"5d5fd29079527b0004a9d75d"},"data":[{"rt":5462,"responses":"{\"Q0\":\" I consent to participate \"}","trial_type":"survey-multi-choice","trial_index":0,"time_elapsed":5465,"internal_node_id":"0.0-0.0","responseType":"finish","participantID":"5mtkrzfubfq636c4f2nrakdx9g8qcwam","conditionNumber":"sequential"},{"trial_type":"call-function","trial_index":1,"time_elapsed":5468,"internal_node_id":"0.0-1.0","responseType":"finish","participantID":"5mtkrzfubfq636c4f2nrakdx9g8qcwam","conditionNumber":"sequential"},{"view_history":"[{\"page_index\":0,\"viewing_time\":5860},{\"page_index\":1,\"viewing_time\":6344}]","rt":12204,"trial_type":"instructions","trial_index":2,"time_elapsed":17672,"internal_node_id":"0.0-2.0","responseType":"finish","participantID":"5mtkrzfubfq636c4f2nrakdx9g8qcwam","conditionNumber":"sequential"},{"rt":null,"stimulus":"\u003cp\u003e\u003ch1\u003eRAGOCIN\u003c/h1\u003e\u003c/p\u003e","key_press":null,"trial_type":"html-keyboard-response","trial_index":3,"time_elapsed":21674,"internal_node_id":"0.0-3.0-0.0","responseType":"finish","participantID":"5mtkrzfubfq636c4f2nrakdx9g8qcwam","conditionNumber":"sequential"},{"rt":5853,"responses":"{\"Q0\":2}","trial_type":"survey-likert","trial_index":4,"time_elapsed":27529,"internal_node_id":"0.0-3.0-1.0","responseType":"finish","participantID":"5mtkrzfubfq636c4f2nrakdx9g8qcwam","conditionNumber":"sequential"},{"rt":null,"stimulus":"\u003cp\u003e\u003ch1\u003eRAOGCIN\u003c/h1\u003e\u003c/p\u003e","key_press":null,"trial_type":"html-keyboard-response","trial_index":5,"time_elapsed":31532,"internal_node_id":"0.0-3.1-0.1","responseType":"finish","participantID":"5mtkrzfubfq636c4f2nrakdx9g8qcwam","conditionNumber":"sequential"},{"rt":6395,"responses":"{\"Q0\":3}","trial_type":"survey-likert","trial_index":6,"time_elapsed":37928,"internal_node_id":"0.0-3.1-1.1","responseType":"finish","participantID":"5mtkrzfubfq636c4f2nrakdx9g8qcwam","conditionNumber":"sequential"},{"rt":null,"stimulus":"\u003cp\u003e\u003ch1\u003eROAGCIN\u003c/h1\u003e\u003c/p\u003e","key_press":null,"trial_type":"html-keyboard-response","trial_index":7,"time_elapsed":41930,"internal_node_id":"0.0-3.2-0.2","responseType":"finish","participantID":"5mtkrzfubfq636c4f2nrakdx9g8qcwam","conditionNumber":"sequential"},{"rt":3406,"responses":"{\"Q0\":3}","trial_type":"survey-likert","trial_index":8,"time_elapsed":45336,"internal_node_id":"0.0-3.2-1.2","responseType":"finish","participantID":"5mtkrzfubfq636c4f2nrakdx9g8qcwam","conditionNumber":"sequential"},{"rt":null,"stimulus":"\u003cp\u003e\u003ch1\u003eORAGCIN\u003c/h1\u003e\u003c/p\u003e","key_press":null,"trial_type":"html-keyboard-response","trial_index":9,"time_elapsed":49338,"internal_node_id":"0.0-3.3-0.3","responseType":"finish","participantID":"5mtkrzfubfq636c4f2nrakdx9g8qcwam","conditionNumber":"sequential"},{"rt":1454,"responses":"{\"Q0\":9}","trial_type":"survey-likert","trial_index":10,"time_elapsed":50793,"internal_node_id":"0.0-3.3-1.3","responseType":"finish","participantID":"5mtkrzfubfq636c4f2nrakdx9g8qcwam","conditionNumber":"sequential"},{"rt":null,"stimulus":"\u003cp\u003e\u003ch1\u003eORAGCNI\u003c/h1\u003e\u003c/p\u003e","key_press":null,"trial_type":"html-keyboard-response","trial_index":11,"time_elapsed":54795,"internal_node_id":"0.0-3.4-0.4","responseType":"finish","participantID":"5mtkrzfubfq636c4f2nrakdx9g8qcwam","conditionNumber":"sequential"},{"rt":1980,"responses":"{\"Q0\":9}","trial_type":"survey-likert","trial_index":12,"time_elapsed":56776,"internal_node_id":"0.0-3.4-1.4","responseType":"finish","participantID":"5mtkrzfubfq636c4f2nrakdx9g8qcwam","conditionNumber":"sequential"},{"rt":null,"stimulus":"\u003cp\u003e\u003ch1\u003eORAGNCI\u003c/h1\u003e\u003c/p\u003e","key_press":null,"trial_type":"html-keyboard-response","trial_index":13,"time_elapsed":60778,"internal_node_id":"0.0-3.5-0.5","responseType":"finish","participantID":"5mtkrzfubfq636c4f2nrakdx9g8qcwam","conditionNumber":"sequential"},{"rt":1806,"responses":"{\"Q0\":9}","trial_type":"survey-likert","trial_index":14,"time_elapsed":62585,"internal_node_id":"0.0-3.5-1.5","responseType":"finish","participantID":"5mtkrzfubfq636c4f2nrakdx9g8qcwam","conditionNumber":"sequential"},{"rt":null,"stimulus":"\u003cp\u003e\u003ch1\u003eORAGNIC\u003c/h1\u003e\u003c/p\u003e","key_press":null,"trial_type":"html-keyboard-response","trial_index":15,"time_elapsed":66587,"internal_node_id":"0.0-3.6-0.6","responseType":"finish","participantID":"5mtkrzfubfq636c4f2nrakdx9g8qcwam","conditionNumber":"sequential"},{"rt":1708,"responses":"{\"Q0\":9}","trial_type":"survey-likert","trial_index":16,"time_elapsed":68296,"internal_node_id":"0.0-3.6-1.6","responseType":"finish","participantID":"5mtkrzfubfq636c4f2nrakdx9g8qcwam","conditionNumber":"sequential"},{"rt":15823,"responses":"{\"Q0\":0}","trial_type":"survey-likert","trial_index":17,"time_elapsed":84121,"internal_node_id":"0.0-4.0","responseType":"finish","participantID":"5mtkrzfubfq636c4f2nrakdx9g8qcwam","conditionNumber":"sequential"}],"__v":0}
{"_id":{"$oid":"5d5fd6a379527b0004a9d75e"},"data":{"responseType":"start","participantID":"hs0eavwk7ek93mg2yl7zs4qju2uopcny","conditionNumber":"sequential"},"__v":0}
