{"_id":{"$oid":"5d66ae82d26e6c0004f02bc6"},"data":{"responseType":"start","participantID":"x67fp7b6ou671fvv93fnwqpe8akks7hs","conditionNumber":"hint"},"__v":0}
{"_id":{"$oid":"5d66aeded26e6c0004f02bc7"},"data":[{"rt":4041,"responses":"{\"Q0\":\" I consent to participate \"}","trial_type":"survey-multi-choice","trial_index":0,"time_elapsed":4047,"internal_node_id":"0.0-0.0","responseType":"finish","participantID":"x67fp7b6ou671fvv93fnwqpe8akks7hs","conditionNumber":"hint"},{"trial_type":"call-function","trial_index":1,"time_elapsed":4051,"internal_node_id":"0.0-1.0","responseType":"finish","participantID":"x67fp7b6ou671fvv93fnwqpe8akks7hs","conditionNumber":"hint"},{"view_history":"[{\"page_index\":0,\"viewing_time\":5833},{\"page_index\":1,\"viewing_time\":8648},{\"page_index\":2,\"viewing_time\":2504}]","rt":16986,"trial_type":"instructions","trial_index":2,"time_elapsed":21038,"internal_node_id":"0.0-2.0","responseType":"finish","participantID":"x67fp7b6ou671fvv93fnwqpe8akks7hs","conditionNumber":"hint"},{"rt":null,"stimulus":"\u003cp\u003e\u003ch1\u003eRAGOCIN\u003c/h1\u003e\u003c/p\u003e","key_press":null,"trial_type":"html-keyboard-response","trial_index":3,"time_elapsed":25041,"internal_node_id":"0.0-3.0-0.0","responseType":"finish","participantID":"x67fp7b6ou671fvv93fnwqpe8akks7hs","conditionNumber":"hint"},{"rt":3819,"responses":"{\"Q0\":3}","trial_type":"survey-likert","trial_index":4,"time_elapsed":28862,"internal_node_id":"0.0-3.0-1.0","responseType":"finish","participantID":"x67fp7b6ou671fvv93fnwqpe8akks7hs","conditionNumber":"hint"},{"rt":null,"stimulus":"\u003cp\u003eNow we will show you another configuration of the anagram\u003c/p\u003e","key_press":null,"trial_type":"html-keyboard-response","trial_index":5,"time_elapsed":34865,"internal_node_id":"0.0-3.0-2.0","responseType":"finish","participantID":"x67fp7b6ou671fvv93fnwqpe8akks7hs","conditionNumber":"hint"},{"rt":null,"stimulus":"\u003cp\u003e\u003ch1\u003eGRCINOA\u003c/h1\u003e\u003c/p\u003e","key_press":null,"trial_type":"html-keyboard-response","trial_index":6,"time_elapsed":38868,"internal_node_id":"0.0-3.1-0.1","responseType":"finish","participantID":"x67fp7b6ou671fvv93fnwqpe8akks7hs","conditionNumber":"hint"},{"rt":3495,"responses":"{\"Q0\":2}","trial_type":"survey-likert","trial_index":7,"time_elapsed":42365,"internal_node_id":"0.0-3.1-1.1","responseType":"finish","participantID":"x67fp7b6ou671fvv93fnwqpe8akks7hs","conditionNumber":"hint"},{"rt":null,"stimulus":"\u003cp\u003eNow we will show you another configuration of the anagram\u003c/p\u003e","key_press":null,"trial_type":"html-keyboard-response","trial_index":8,"time_elapsed":48369,"internal_node_id":"0.0-3.1-2.1","responseType":"finish","participantID":"x67fp7b6ou671fvv93fnwqpe8akks7hs","conditionNumber":"hint"},{"rt":null,"stimulus":"\u003cp\u003e\u003ch1\u003eCROAIGN\u003c/h1\u003e\u003c/p\u003e","key_press":null,"trial_type":"html-keyboard-response","trial_index":9,"time_elapsed":52371,"internal_node_id":"0.0-3.2-0.2","responseType":"finish","participantID":"x67fp7b6ou671fvv93fnwqpe8akks7hs","conditionNumber":"hint"},{"rt":2888,"responses":"{\"Q0\":2}","trial_type":"survey-likert","trial_index":10,"time_elapsed":55261,"internal_node_id":"0.0-3.2-1.2","responseType":"finish","participantID":"x67fp7b6ou671fvv93fnwqpe8akks7hs","conditionNumber":"hint"},{"rt":null,"stimulus":"\u003cp\u003eNow we will show you another configuration of the anagram\u003c/p\u003e","key_press":null,"trial_type":"html-keyboard-response","trial_index":11,"time_elapsed":61262,"internal_node_id":"0.0-3.2-2.2","responseType":"finish","participantID":"x67fp7b6ou671fvv93fnwqpe8akks7hs","conditionNumber":"hint"},{"rt":null,"stimulus":"\u003cp\u003e\u003ch1\u003eAGCORNI\u003c/h1\u003e\u003c/p\u003e","key_press":null,"trial_type":"html-keyboard-response","trial_index":12,"time_elapsed":65264,"internal_node_id":"0.0-3.3-0.3","responseType":"finish","participantID":"x67fp7b6ou671fvv93fnwqpe8akks7hs","conditionNumber":"hint"},{"rt":2308,"responses":"{\"Q0\":2}","trial_type":"survey-likert","trial_index":13,"time_elapsed":67573,"internal_node_id":"0.0-3.3-1.3","responseType":"finish","participantID":"x67fp7b6ou671fvv93fnwqpe8akks7hs","conditionNumber":"hint"},{"rt":null,"stimulus":"\u003cp\u003eNow we will show you another configuration of the anagram\u003c/p\u003e","key_press":null,"trial_type":"html-keyboard-response","trial_index":14,"time_elapsed":73576,"internal_node_id":"0.0-3.3-2.3","responseType":"finish","participantID":"x67fp7b6ou671fvv93fnwqpe8akks7hs","conditionNumber":"hint"},{"rt":null,"stimulus":"\u003cp\u003e\u003ch1\u003eNACGIOR\u003c/h1\u003e\u003c/p\u003e","key_press":null,"trial_type":"html-keyboard-response","trial_index":15,"time_elapsed":77577,"internal_node_id":"0.0-3.4-0.4","responseType":"finish","participantID":"x67fp7b6ou671fvv93fnwqpe8akks7hs","conditionNumber":"hint"},{"rt":1985,"responses":"{\"Q0\":2}","trial_type":"survey-likert","trial_index":16,"time_elapsed":79565,"internal_node_id":"0.0-3.4-1.4","responseType":"finish","participantID":"x67fp7b6ou671fvv93fnwqpe8akks7hs","conditionNumber":"hint"},{"rt":null,"stimulus":"\u003cp\u003eOkay, we have troubled you enough. To help you, we will next show you a much \u003cb\u003eeasier\u003c/b\u003e configuration of this anagram\u003c/p\u003e","key_press":null,"trial_type":"html-keyboard-response","trial_index":17,"time_elapsed":85567,"internal_node_id":"0.0-3.4-2.4","responseType":"finish","participantID":"x67fp7b6ou671fvv93fnwqpe8akks7hs","conditionNumber":"hint"},{"rt":null,"stimulus":"\u003cp\u003e\u003ch1\u003eORAGNIC\u003c/h1\u003e\u003c/p\u003e","key_press":null,"trial_type":"html-keyboard-response","trial_index":18,"time_elapsed":89569,"internal_node_id":"0.0-3.5-0.5","responseType":"finish","participantID":"x67fp7b6ou671fvv93fnwqpe8akks7hs","conditionNumber":"hint"},{"rt":2050,"responses":"{\"Q0\":9}","trial_type":"survey-likert","trial_index":19,"time_elapsed":91621,"internal_node_id":"0.0-3.5-1.5","responseType":"finish","participantID":"x67fp7b6ou671fvv93fnwqpe8akks7hs","conditionNumber":"hint"},{"rt":null,"stimulus":"\u003cp\u003eNow we will show you another configuration of the anagram\u003c/p\u003e","key_press":null,"trial_type":"html-keyboard-response","trial_index":20,"time_elapsed":91624,"internal_node_id":"0.0-3.5-2.5","responseType":"finish","participantID":"x67fp7b6ou671fvv93fnwqpe8akks7hs","conditionNumber":"hint"},{"rt":4090,"responses":"{\"Q0\":9}","trial_type":"survey-likert","trial_index":21,"time_elapsed":95717,"internal_node_id":"0.0-4.0","responseType":"finish","participantID":"x67fp7b6ou671fvv93fnwqpe8akks7hs","conditionNumber":"hint"}],"__v":0}
{"_id":{"$oid":"5d66af14d26e6c0004f02bc8"},"data":{"responseType":"start","participantID":"06ttrtg1hmwnuoqer390uqvmfnxwddh4","conditionNumber":"hint"},"__v":0}
{"_id":{"$oid":"5d66af4ad26e6c0004f02bc9"},"data":{"responseType":"start","participantID":"ontthah9448697vwaxhpqm57xt7pgar9","conditionNumber":"hint"},"__v":0}
{"_id":{"$oid":"5d66af87d26e6c0004f02bca"},"data":[{"rt":8430,"responses":"{\"Q0\":\" I consent to participate \"}","trial_type":"survey-multi-choice","trial_index":0,"time_elapsed":8438,"internal_node_id":"0.0-0.0","responseType":"finish","participantID":"06ttrtg1hmwnuoqer390uqvmfnxwddh4","conditionNumber":"hint"},{"trial_type":"call-function","trial_index":1,"time_elapsed":8441,"internal_node_id":"0.0-1.0","responseType":"finish","participantID":"06ttrtg1hmwnuoqer390uqvmfnxwddh4","conditionNumber":"hint"},{"view_history":"[{\"page_index\":0,\"viewing_time\":9682},{\"page_index\":1,\"viewing_time\":11144},{\"page_index\":2,\"viewing_time\":2495}]","rt":23322,"trial_type":"instructions","trial_index":2,"time_elapsed":31765,"internal_node_id":"0.0-2.0","responseType":"finish","participantID":"06ttrtg1hmwnuoqer390uqvmfnxwddh4","conditionNumber":"hint"},{"rt":null,"stimulus":"\u003cp\u003e\u003ch1\u003eRAGOCIN\u003c/h1\u003e\u003c/p\u003e","key_press":null,"trial_type":"html-keyboard-response","trial_index":3,"time_elapsed":35768,"internal_node_id":"0.0-3.0-0.0","responseType":"finish","participantID":"06ttrtg1hmwnuoqer390uqvmfnxwddh4","conditionNumber":"hint"},{"rt":3916,"responses":"{\"Q0\":0}","trial_type":"survey-likert","trial_index":4,"time_elapsed":39685,"internal_node_id":"0.0-3.0-1.0","responseType":"finish","participantID":"06ttrtg1hmwnuoqer390uqvmfnxwddh4","conditionNumber":"hint"},{"rt":null,"stimulus":"\u003cp\u003eNow we will show you another configuration of the anagram\u003c/p\u003e","key_press":null,"trial_type":"html-keyboard-response","trial_index":5,"time_elapsed":45688,"internal_node_id":"0.0-3.0-2.0","responseType":"finish","participantID":"06ttrtg1hmwnuoqer390uqvmfnxwddh4","conditionNumber":"hint"},{"rt":null,"stimulus":"\u003cp\u003e\u003ch1\u003eGRCINOA\u003c/h1\u003e\u003c/p\u003e","key_press":null,"trial_type":"html-keyboard-response","trial_index":6,"time_elapsed":49690,"internal_node_id":"0.0-3.1-0.1","responseType":"finish","participantID":"06ttrtg1hmwnuoqer390uqvmfnxwddh4","conditionNumber":"hint"},{"rt":6521,"responses":"{\"Q0\":0}","trial_type":"survey-likert","trial_index":7,"time_elapsed":56212,"internal_node_id":"0.0-3.1-1.1","responseType":"finish","participantID":"06ttrtg1hmwnuoqer390uqvmfnxwddh4","conditionNumber":"hint"},{"rt":null,"stimulus":"\u003cp\u003eNow we will show you another configuration of the anagram\u003c/p\u003e","key_press":null,"trial_type":"html-keyboard-response","trial_index":8,"time_elapsed":62214,"internal_node_id":"0.0-3.1-2.1","responseType":"finish","participantID":"06ttrtg1hmwnuoqer390uqvmfnxwddh4","conditionNumber":"hint"},{"rt":null,"stimulus":"\u003cp\u003e\u003ch1\u003eCROAIGN\u003c/h1\u003e\u003c/p\u003e","key_press":null,"trial_type":"html-keyboard-response","trial_index":9,"time_elapsed":66216,"internal_node_id":"0.0-3.2-0.2","responseType":"finish","participantID":"06ttrtg1hmwnuoqer390uqvmfnxwddh4","conditionNumber":"hint"},{"rt":4771,"responses":"{\"Q0\":1}","trial_type":"survey-likert","trial_index":10,"time_elapsed":70988,"internal_node_id":"0.0-3.2-1.2","responseType":"finish","participantID":"06ttrtg1hmwnuoqer390uqvmfnxwddh4","conditionNumber":"hint"},{"rt":null,"stimulus":"\u003cp\u003eNow we will show you another configuration of the anagram\u003c/p\u003e","key_press":null,"trial_type":"html-keyboard-response","trial_index":11,"time_elapsed":76991,"internal_node_id":"0.0-3.2-2.2","responseType":"finish","participantID":"06ttrtg1hmwnuoqer390uqvmfnxwddh4","conditionNumber":"hint"},{"rt":null,"stimulus":"\u003cp\u003e\u003ch1\u003eAGCORNI\u003c/h1\u003e\u003c/p\u003e","key_press":null,"trial_type":"html-keyboard-response","trial_index":12,"time_elapsed":80993,"internal_node_id":"0.0-3.3-0.3","responseType":"finish","participantID":"06ttrtg1hmwnuoqer390uqvmfnxwddh4","conditionNumber":"hint"},{"rt":7298,"responses":"{\"Q0\":1}","trial_type":"survey-likert","trial_index":13,"time_elapsed":88292,"internal_node_id":"0.0-3.3-1.3","responseType":"finish","participantID":"06ttrtg1hmwnuoqer390uqvmfnxwddh4","conditionNumber":"hint"},{"rt":null,"stimulus":"\u003cp\u003eNow we will show you another configuration of the anagram\u003c/p\u003e","key_press":null,"trial_type":"html-keyboard-response","trial_index":14,"time_elapsed":94295,"internal_node_id":"0.0-3.3-2.3","responseType":"finish","participantID":"06ttrtg1hmwnuoqer390uqvmfnxwddh4","conditionNumber":"hint"},{"rt":null,"stimulus":"\u003cp\u003e\u003ch1\u003eNACGIOR\u003c/h1\u003e\u003c/p\u003e","key_press":null,"trial_type":"html-keyboard-response","trial_index":15,"time_elapsed":98297,"internal_node_id":"0.0-3.4-0.4","responseType":"finish","participantID":"06ttrtg1hmwnuoqer390uqvmfnxwddh4","conditionNumber":"hint"},{"rt":5274,"responses":"{\"Q0\":0}","trial_type":"survey-likert","trial_index":16,"time_elapsed":103572,"internal_node_id":"0.0-3.4-1.4","responseType":"finish","participantID":"06ttrtg1hmwnuoqer390uqvmfnxwddh4","conditionNumber":"hint"},{"rt":null,"stimulus":"\u003cp\u003eOkay, we have troubled you enough. To help you, we will next show you a much \u003cb\u003eeasier\u003c/b\u003e configuration of this anagram\u003c/p\u003e","key_press":null,"trial_type":"html-keyboard-response","trial_index":17,"time_elapsed":109574,"internal_node_id":"0.0-3.4-2.4","responseType":"finish","participantID":"06ttrtg1hmwnuoqer390uqvmfnxwddh4","conditionNumber":"hint"},{"rt":null,"stimulus":"\u003cp\u003e\u003ch1\u003eORAGNIC\u003c/h1\u003e\u003c/p\u003e","key_press":null,"trial_type":"html-keyboard-response","trial_index":18,"time_elapsed":113576,"internal_node_id":"0.0-3.5-0.5","responseType":"finish","participantID":"06ttrtg1hmwnuoqer390uqvmfnxwddh4","conditionNumber":"hint"},{"rt":3684,"responses":"{\"Q0\":9}","trial_type":"survey-likert","trial_index":19,"time_elapsed":117260,"internal_node_id":"0.0-3.5-1.5","responseType":"finish","participantID":"06ttrtg1hmwnuoqer390uqvmfnxwddh4","conditionNumber":"hint"},{"rt":null,"stimulus":"\u003cp\u003eNow we will show you another configuration of the anagram\u003c/p\u003e","key_press":null,"trial_type":"html-keyboard-response","trial_index":20,"time_elapsed":117263,"internal_node_id":"0.0-3.5-2.5","responseType":"finish","participantID":"06ttrtg1hmwnuoqer390uqvmfnxwddh4","conditionNumber":"hint"},{"rt":6285,"responses":"{\"Q0\":9}","trial_type":"survey-likert","trial_index":21,"time_elapsed":123548,"internal_node_id":"0.0-4.0","responseType":"finish","participantID":"06ttrtg1hmwnuoqer390uqvmfnxwddh4","conditionNumber":"hint"}],"__v":0}
{"_id":{"$oid":"5d66afbcd26e6c0004f02bcb"},"data":[{"rt":9787,"responses":"{\"Q0\":\" I consent to participate \"}","trial_type":"survey-multi-choice","trial_index":0,"time_elapsed":9794,"internal_node_id":"0.0-0.0","responseType":"finish","participantID":"ontthah9448697vwaxhpqm57xt7pgar9","conditionNumber":"hint"},{"trial_type":"call-function","trial_index":1,"time_elapsed":9805,"internal_node_id":"0.0-1.0","responseType":"finish","participantID":"ontthah9448697vwaxhpqm57xt7pgar9","conditionNumber":"hint"},{"view_history":"[{\"page_index\":0,\"viewing_time\":13753},{\"page_index\":1,\"viewing_time\":16687},{\"page_index\":2,\"viewing_time\":2624}]","rt":33065,"trial_type":"instructions","trial_index":2,"time_elapsed":42871,"internal_node_id":"0.0-2.0","responseType":"finish","participantID":"ontthah9448697vwaxhpqm57xt7pgar9","conditionNumber":"hint"},{"rt":null,"stimulus":"\u003cp\u003e\u003ch1\u003eRAGOCIN\u003c/h1\u003e\u003c/p\u003e","key_press":null,"trial_type":"html-keyboard-response","trial_index":3,"time_elapsed":46874,"internal_node_id":"0.0-3.0-0.0","responseType":"finish","participantID":"ontthah9448697vwaxhpqm57xt7pgar9","conditionNumber":"hint"},{"rt":4067,"responses":"{\"Q0\":1}","trial_type":"survey-likert","trial_index":4,"time_elapsed":50945,"internal_node_id":"0.0-3.0-1.0","responseType":"finish","participantID":"ontthah9448697vwaxhpqm57xt7pgar9","conditionNumber":"hint"},{"rt":null,"stimulus":"\u003cp\u003eNow we will show you another configuration of the anagram\u003c/p\u003e","key_press":null,"trial_type":"html-keyboard-response","trial_index":5,"time_elapsed":56950,"internal_node_id":"0.0-3.0-2.0","responseType":"finish","participantID":"ontthah9448697vwaxhpqm57xt7pgar9","conditionNumber":"hint"},{"rt":null,"stimulus":"\u003cp\u003e\u003ch1\u003eGRCINOA\u003c/h1\u003e\u003c/p\u003e","key_press":null,"trial_type":"html-keyboard-response","trial_index":6,"time_elapsed":60953,"internal_node_id":"0.0-3.1-0.1","responseType":"finish","participantID":"ontthah9448697vwaxhpqm57xt7pgar9","conditionNumber":"hint"},{"rt":2480,"responses":"{\"Q0\":1}","trial_type":"survey-likert","trial_index":7,"time_elapsed":63434,"internal_node_id":"0.0-3.1-1.1","responseType":"finish","participantID":"ontthah9448697vwaxhpqm57xt7pgar9","conditionNumber":"hint"},{"rt":null,"stimulus":"\u003cp\u003eNow we will show you another configuration of the anagram\u003c/p\u003e","key_press":null,"trial_type":"html-keyboard-response","trial_index":8,"time_elapsed":69436,"internal_node_id":"0.0-3.1-2.1","responseType":"finish","participantID":"ontthah9448697vwaxhpqm57xt7pgar9","conditionNumber":"hint"},{"rt":null,"stimulus":"\u003cp\u003e\u003ch1\u003eCROAIGN\u003c/h1\u003e\u003c/p\u003e","key_press":null,"trial_type":"html-keyboard-response","trial_index":9,"time_elapsed":73437,"internal_node_id":"0.0-3.2-0.2","responseType":"finish","participantID":"ontthah9448697vwaxhpqm57xt7pgar9","conditionNumber":"hint"},{"rt":2729,"responses":"{\"Q0\":0}","trial_type":"survey-likert","trial_index":10,"time_elapsed":76168,"internal_node_id":"0.0-3.2-1.2","responseType":"finish","participantID":"ontthah9448697vwaxhpqm57xt7pgar9","conditionNumber":"hint"},{"rt":null,"stimulus":"\u003cp\u003eNow we will show you another configuration of the anagram\u003c/p\u003e","key_press":null,"trial_type":"html-keyboard-response","trial_index":11,"time_elapsed":82170,"internal_node_id":"0.0-3.2-2.2","responseType":"finish","participantID":"ontthah9448697vwaxhpqm57xt7pgar9","conditionNumber":"hint"},{"rt":null,"stimulus":"\u003cp\u003e\u003ch1\u003eAGCORNI\u003c/h1\u003e\u003c/p\u003e","key_press":null,"trial_type":"html-keyboard-response","trial_index":12,"time_elapsed":86171,"internal_node_id":"0.0-3.3-0.3","responseType":"finish","participantID":"ontthah9448697vwaxhpqm57xt7pgar9","conditionNumber":"hint"},{"rt":3348,"responses":"{\"Q0\":1}","trial_type":"survey-likert","trial_index":13,"time_elapsed":89520,"internal_node_id":"0.0-3.3-1.3","responseType":"finish","participantID":"ontthah9448697vwaxhpqm57xt7pgar9","conditionNumber":"hint"},{"rt":null,"stimulus":"\u003cp\u003eNow we will show you another configuration of the anagram\u003c/p\u003e","key_press":null,"trial_type":"html-keyboard-response","trial_index":14,"time_elapsed":95522,"internal_node_id":"0.0-3.3-2.3","responseType":"finish","participantID":"ontthah9448697vwaxhpqm57xt7pgar9","conditionNumber":"hint"},{"rt":null,"stimulus":"\u003cp\u003e\u003ch1\u003eNACGIOR\u003c/h1\u003e\u003c/p\u003e","key_press":null,"trial_type":"html-keyboard-response","trial_index":15,"time_elapsed":99524,"internal_node_id":"0.0-3.4-0.4","responseType":"finish","participantID":"ontthah9448697vwaxhpqm57xt7pgar9","conditionNumber":"hint"},{"rt":3394,"responses":"{\"Q0\":0}","trial_type":"survey-likert","trial_index":16,"time_elapsed":102921,"internal_node_id":"0.0-3.4-1.4","responseType":"finish","participantID":"ontthah9448697vwaxhpqm57xt7pgar9","conditionNumber":"hint"},{"rt":null,"stimulus":"\u003cp\u003eOkay, we have troubled you enough. To help you, we will next show you a much \u003cb\u003eeasier\u003c/b\u003e configuration of this anagram\u003c/p\u003e","key_press":null,"trial_type":"html-keyboard-response","trial_index":17,"time_elapsed":108924,"internal_node_id":"0.0-3.4-2.4","responseType":"finish","participantID":"ontthah9448697vwaxhpqm57xt7pgar9","conditionNumber":"hint"},{"rt":null,"stimulus":"\u003cp\u003e\u003ch1\u003eORAGNIC\u003c/h1\u003e\u003c/p\u003e","key_press":null,"trial_type":"html-keyboard-response","trial_index":18,"time_elapsed":112925,"internal_node_id":"0.0-3.5-0.5","responseType":"finish","participantID":"ontthah9448697vwaxhpqm57xt7pgar9","conditionNumber":"hint"},{"rt":3105,"responses":"{\"Q0\":9}","trial_type":"survey-likert","trial_index":19,"time_elapsed":116033,"internal_node_id":"0.0-3.5-1.5","responseType":"finish","participantID":"ontthah9448697vwaxhpqm57xt7pgar9","conditionNumber":"hint"},{"rt":null,"stimulus":"\u003cp\u003eNow we will show you another configuration of the anagram\u003c/p\u003e","key_press":null,"trial_type":"html-keyboard-response","trial_index":20,"time_elapsed":116037,"internal_node_id":"0.0-3.5-2.5","responseType":"finish","participantID":"ontthah9448697vwaxhpqm57xt7pgar9","conditionNumber":"hint"},{"rt":6547,"responses":"{\"Q0\":9}","trial_type":"survey-likert","trial_index":21,"time_elapsed":122585,"internal_node_id":"0.0-4.0","responseType":"finish","participantID":"ontthah9448697vwaxhpqm57xt7pgar9","conditionNumber":"hint"}],"__v":0}
{"_id":{"$oid":"5d66b0f0d26e6c0004f02bcc"},"data":{"responseType":"start","participantID":"tyyl7d5hy4xh4nexpw7rpttg1fbw0j8j","conditionNumber":"none"},"__v":0}
{"_id":{"$oid":"5d66b170d26e6c0004f02bcd"},"data":[{"rt":4741,"responses":"{\"Q0\":\" I consent to participate \"}","trial_type":"survey-multi-choice","trial_index":0,"time_elapsed":4745,"internal_node_id":"0.0-0.0","responseType":"finish","participantID":"tyyl7d5hy4xh4nexpw7rpttg1fbw0j8j","conditionNumber":"none"},{"trial_type":"call-function","trial_index":1,"time_elapsed":4752,"internal_node_id":"0.0-1.0","responseType":"finish","participantID":"tyyl7d5hy4xh4nexpw7rpttg1fbw0j8j","conditionNumber":"none"},{"view_history":"[{\"page_index\":0,\"viewing_time\":17181},{\"page_index\":1,\"viewing_time\":18984},{\"page_index\":2,\"viewing_time\":3242}]","rt":39408,"trial_type":"instructions","trial_index":2,"time_elapsed":44160,"internal_node_id":"0.0-2.0","responseType":"finish","participantID":"tyyl7d5hy4xh4nexpw7rpttg1fbw0j8j","conditionNumber":"none"},{"rt":null,"stimulus":"\u003cp\u003e\u003ch1\u003eRAGOCIN\u003c/h1\u003e\u003c/p\u003e","key_press":null,"trial_type":"html-keyboard-response","trial_index":3,"time_elapsed":48162,"internal_node_id":"0.0-3.0-0.0","responseType":"finish","participantID":"tyyl7d5hy4xh4nexpw7rpttg1fbw0j8j","conditionNumber":"none"},{"rt":6139,"responses":"{\"Q0\":3}","trial_type":"survey-likert","trial_index":4,"time_elapsed":54302,"internal_node_id":"0.0-3.0-1.0","responseType":"finish","participantID":"tyyl7d5hy4xh4nexpw7rpttg1fbw0j8j","conditionNumber":"none"},{"rt":null,"stimulus":"\u003cp\u003eNow we will show you another configuration of the anagram\u003c/p\u003e","key_press":null,"trial_type":"html-keyboard-response","trial_index":5,"time_elapsed":60308,"internal_node_id":"0.0-3.0-2.0","responseType":"finish","participantID":"tyyl7d5hy4xh4nexpw7rpttg1fbw0j8j","conditionNumber":"none"},{"rt":null,"stimulus":"\u003cp\u003e\u003ch1\u003eGRCINOA\u003c/h1\u003e\u003c/p\u003e","key_press":null,"trial_type":"html-keyboard-response","trial_index":6,"time_elapsed":64309,"internal_node_id":"0.0-3.1-0.1","responseType":"finish","participantID":"tyyl7d5hy4xh4nexpw7rpttg1fbw0j8j","conditionNumber":"none"},{"rt":5309,"responses":"{\"Q0\":2}","trial_type":"survey-likert","trial_index":7,"time_elapsed":69620,"internal_node_id":"0.0-3.1-1.1","responseType":"finish","participantID":"tyyl7d5hy4xh4nexpw7rpttg1fbw0j8j","conditionNumber":"none"},{"rt":null,"stimulus":"\u003cp\u003eNow we will show you another configuration of the anagram\u003c/p\u003e","key_press":null,"trial_type":"html-keyboard-response","trial_index":8,"time_elapsed":75624,"internal_node_id":"0.0-3.1-2.1","responseType":"finish","participantID":"tyyl7d5hy4xh4nexpw7rpttg1fbw0j8j","conditionNumber":"none"},{"rt":null,"stimulus":"\u003cp\u003e\u003ch1\u003eCROAIGN\u003c/h1\u003e\u003c/p\u003e","key_press":null,"trial_type":"html-keyboard-response","trial_index":9,"time_elapsed":79625,"internal_node_id":"0.0-3.2-0.2","responseType":"finish","participantID":"tyyl7d5hy4xh4nexpw7rpttg1fbw0j8j","conditionNumber":"none"},{"rt":3422,"responses":"{\"Q0\":3}","trial_type":"survey-likert","trial_index":10,"time_elapsed":83049,"internal_node_id":"0.0-3.2-1.2","responseType":"finish","participantID":"tyyl7d5hy4xh4nexpw7rpttg1fbw0j8j","conditionNumber":"none"},{"rt":null,"stimulus":"\u003cp\u003eNow we will show you another configuration of the anagram\u003c/p\u003e","key_press":null,"trial_type":"html-keyboard-response","trial_index":11,"time_elapsed":89053,"internal_node_id":"0.0-3.2-2.2","responseType":"finish","participantID":"tyyl7d5hy4xh4nexpw7rpttg1fbw0j8j","conditionNumber":"none"},{"rt":null,"stimulus":"\u003cp\u003e\u003ch1\u003eAGCORNI\u003c/h1\u003e\u003c/p\u003e","key_press":null,"trial_type":"html-keyboard-response","trial_index":12,"time_elapsed":93054,"internal_node_id":"0.0-3.3-0.3","responseType":"finish","participantID":"tyyl7d5hy4xh4nexpw7rpttg1fbw0j8j","conditionNumber":"none"},{"rt":4863,"responses":"{\"Q0\":2}","trial_type":"survey-likert","trial_index":13,"time_elapsed":97918,"internal_node_id":"0.0-3.3-1.3","responseType":"finish","participantID":"tyyl7d5hy4xh4nexpw7rpttg1fbw0j8j","conditionNumber":"none"},{"rt":null,"stimulus":"\u003cp\u003eNow we will show you another configuration of the anagram\u003c/p\u003e","key_press":null,"trial_type":"html-keyboard-response","trial_index":14,"time_elapsed":103923,"internal_node_id":"0.0-3.3-2.3","responseType":"finish","participantID":"tyyl7d5hy4xh4nexpw7rpttg1fbw0j8j","conditionNumber":"none"},{"rt":null,"stimulus":"\u003cp\u003e\u003ch1\u003eNACGIOR\u003c/h1\u003e\u003c/p\u003e","key_press":null,"trial_type":"html-keyboard-response","trial_index":15,"time_elapsed":107926,"internal_node_id":"0.0-3.4-0.4","responseType":"finish","participantID":"tyyl7d5hy4xh4nexpw7rpttg1fbw0j8j","conditionNumber":"none"},{"rt":4087,"responses":"{\"Q0\":3}","trial_type":"survey-likert","trial_index":16,"time_elapsed":112014,"internal_node_id":"0.0-3.4-1.4","responseType":"finish","participantID":"tyyl7d5hy4xh4nexpw7rpttg1fbw0j8j","conditionNumber":"none"},{"rt":null,"stimulus":"\u003cp\u003eNow we will show you another configuration of the anagram\u003c/p\u003e","key_press":null,"trial_type":"html-keyboard-response","trial_index":17,"time_elapsed":118019,"internal_node_id":"0.0-3.4-2.4","responseType":"finish","participantID":"tyyl7d5hy4xh4nexpw7rpttg1fbw0j8j","conditionNumber":"none"},{"rt":null,"stimulus":"\u003cp\u003e\u003ch1\u003eORAGNIC\u003c/h1\u003e\u003c/p\u003e","key_press":null,"trial_type":"html-keyboard-response","trial_index":18,"time_elapsed":122020,"internal_node_id":"0.0-3.5-0.5","responseType":"finish","participantID":"tyyl7d5hy4xh4nexpw7rpttg1fbw0j8j","conditionNumber":"none"},{"rt":2893,"responses":"{\"Q0\":6}","trial_type":"survey-likert","trial_index":19,"time_elapsed":124913,"internal_node_id":"0.0-3.5-1.5","responseType":"finish","participantID":"tyyl7d5hy4xh4nexpw7rpttg1fbw0j8j","conditionNumber":"none"},{"rt":null,"stimulus":"\u003cp\u003eNow we will show you another configuration of the anagram\u003c/p\u003e","key_press":null,"trial_type":"html-keyboard-response","trial_index":20,"time_elapsed":124919,"internal_node_id":"0.0-3.5-2.5","responseType":"finish","participantID":"tyyl7d5hy4xh4nexpw7rpttg1fbw0j8j","conditionNumber":"none"},{"rt":7551,"responses":"{\"Q0\":7}","trial_type":"survey-likert","trial_index":21,"time_elapsed":132470,"internal_node_id":"0.0-4.0","responseType":"finish","participantID":"tyyl7d5hy4xh4nexpw7rpttg1fbw0j8j","conditionNumber":"none"}],"__v":0}
{"_id":{"$oid":"5d66b4c9d26e6c0004f02bce"},"data":{"responseType":"start","participantID":"sx8u8hz3f2vh06qfz8swk894hn26w51j","conditionNumber":"hint"},"__v":0}
{"_id":{"$oid":"5d66b533d26e6c0004f02bcf"},"data":[{"rt":4194,"responses":"{\"Q0\":\" I consent to participate \"}","trial_type":"survey-multi-choice","trial_index":0,"time_elapsed":4197,"internal_node_id":"0.0-0.0","responseType":"finish","participantID":"sx8u8hz3f2vh06qfz8swk894hn26w51j","conditionNumber":"hint"},{"trial_type":"call-function","trial_index":1,"time_elapsed":4201,"internal_node_id":"0.0-1.0","responseType":"finish","participantID":"sx8u8hz3f2vh06qfz8swk894hn26w51j","conditionNumber":"hint"},{"view_history":"[{\"page_index\":0,\"viewing_time\":6717},{\"page_index\":1,\"viewing_time\":13117},{\"page_index\":2,\"viewing_time\":2420}]","rt":22254,"trial_type":"instructions","trial_index":2,"time_elapsed":26455,"internal_node_id":"0.0-2.0","responseType":"finish","participantID":"sx8u8hz3f2vh06qfz8swk894hn26w51j","conditionNumber":"hint"},{"rt":null,"stimulus":"\u003cp\u003e\u003ch1\u003eRAGOCIN\u003c/h1\u003e\u003c/p\u003e","key_press":null,"trial_type":"html-keyboard-response","trial_index":3,"time_elapsed":30457,"internal_node_id":"0.0-3.0-0.0","responseType":"finish","participantID":"sx8u8hz3f2vh06qfz8swk894hn26w51j","conditionNumber":"hint"},{"rt":8758,"responses":"{\"Q0\":4}","trial_type":"survey-likert","trial_index":4,"time_elapsed":39218,"internal_node_id":"0.0-3.0-1.0","responseType":"finish","participantID":"sx8u8hz3f2vh06qfz8swk894hn26w51j","conditionNumber":"hint"},{"rt":null,"stimulus":"\u003cp\u003eNow we will show you another configuration of the anagram\u003c/p\u003e","key_press":null,"trial_type":"html-keyboard-response","trial_index":5,"time_elapsed":45220,"internal_node_id":"0.0-3.0-2.0","responseType":"finish","participantID":"sx8u8hz3f2vh06qfz8swk894hn26w51j","conditionNumber":"hint"},{"rt":null,"stimulus":"\u003cp\u003e\u003ch1\u003eGRCINOA\u003c/h1\u003e\u003c/p\u003e","key_press":null,"trial_type":"html-keyboard-response","trial_index":6,"time_elapsed":50094,"internal_node_id":"0.0-3.1-0.1","responseType":"finish","participantID":"sx8u8hz3f2vh06qfz8swk894hn26w51j","conditionNumber":"hint"},{"rt":4729,"responses":"{\"Q0\":5}","trial_type":"survey-likert","trial_index":7,"time_elapsed":54824,"internal_node_id":"0.0-3.1-1.1","responseType":"finish","participantID":"sx8u8hz3f2vh06qfz8swk894hn26w51j","conditionNumber":"hint"},{"rt":null,"stimulus":"\u003cp\u003eNow we will show you another configuration of the anagram\u003c/p\u003e","key_press":null,"trial_type":"html-keyboard-response","trial_index":8,"time_elapsed":60826,"internal_node_id":"0.0-3.1-2.1","responseType":"finish","participantID":"sx8u8hz3f2vh06qfz8swk894hn26w51j","conditionNumber":"hint"},{"rt":null,"stimulus":"\u003cp\u003e\u003ch1\u003eCROAIGN\u003c/h1\u003e\u003c/p\u003e","key_press":null,"trial_type":"html-keyboard-response","trial_index":9,"time_elapsed":64827,"internal_node_id":"0.0-3.2-0.2","responseType":"finish","participantID":"sx8u8hz3f2vh06qfz8swk894hn26w51j","conditionNumber":"hint"},{"rt":3970,"responses":"{\"Q0\":8}","trial_type":"survey-likert","trial_index":10,"time_elapsed":68798,"internal_node_id":"0.0-3.2-1.2","responseType":"finish","participantID":"sx8u8hz3f2vh06qfz8swk894hn26w51j","conditionNumber":"hint"},{"rt":null,"stimulus":"\u003cp\u003eNow we will show you another configuration of the anagram\u003c/p\u003e","key_press":null,"trial_type":"html-keyboard-response","trial_index":11,"time_elapsed":74802,"internal_node_id":"0.0-3.2-2.2","responseType":"finish","participantID":"sx8u8hz3f2vh06qfz8swk894hn26w51j","conditionNumber":"hint"},{"rt":null,"stimulus":"\u003cp\u003e\u003ch1\u003eAGCORNI\u003c/h1\u003e\u003c/p\u003e","key_press":null,"trial_type":"html-keyboard-response","trial_index":12,"time_elapsed":78804,"internal_node_id":"0.0-3.3-0.3","responseType":"finish","participantID":"sx8u8hz3f2vh06qfz8swk894hn26w51j","conditionNumber":"hint"},{"rt":2278,"responses":"{\"Q0\":9}","trial_type":"survey-likert","trial_index":13,"time_elapsed":81084,"internal_node_id":"0.0-3.3-1.3","responseType":"finish","participantID":"sx8u8hz3f2vh06qfz8swk894hn26w51j","conditionNumber":"hint"},{"rt":null,"stimulus":"\u003cp\u003eNow we will show you another configuration of the anagram\u003c/p\u003e","key_press":null,"trial_type":"html-keyboard-response","trial_index":14,"time_elapsed":87085,"internal_node_id":"0.0-3.3-2.3","responseType":"finish","participantID":"sx8u8hz3f2vh06qfz8swk894hn26w51j","conditionNumber":"hint"},{"rt":null,"stimulus":"\u003cp\u003e\u003ch1\u003eNACGIOR\u003c/h1\u003e\u003c/p\u003e","key_press":null,"trial_type":"html-keyboard-response","trial_index":15,"time_elapsed":91086,"internal_node_id":"0.0-3.4-0.4","responseType":"finish","participantID":"sx8u8hz3f2vh06qfz8swk894hn26w51j","conditionNumber":"hint"},{"rt":2421,"responses":"{\"Q0\":9}","trial_type":"survey-likert","trial_index":16,"time_elapsed":93508,"internal_node_id":"0.0-3.4-1.4","responseType":"finish","participantID":"sx8u8hz3f2vh06qfz8swk894hn26w51j","conditionNumber":"hint"},{"rt":null,"stimulus":"\u003cp\u003eOkay, we have troubled you enough. To help you, we will next show you a much \u003cb\u003eeasier\u003c/b\u003e configuration of this anagram\u003c/p\u003e","key_press":null,"trial_type":"html-keyboard-response","trial_index":17,"time_elapsed":99510,"internal_node_id":"0.0-3.4-2.4","responseType":"finish","participantID":"sx8u8hz3f2vh06qfz8swk894hn26w51j","conditionNumber":"hint"},{"rt":null,"stimulus":"\u003cp\u003e\u003ch1\u003eORAGNIC\u003c/h1\u003e\u003c/p\u003e","key_press":null,"trial_type":"html-keyboard-response","trial_index":18,"time_elapsed":103511,"internal_node_id":"0.0-3.5-0.5","responseType":"finish","participantID":"sx8u8hz3f2vh06qfz8swk894hn26w51j","conditionNumber":"hint"},{"rt":1788,"responses":"{\"Q0\":9}","trial_type":"survey-likert","trial_index":19,"time_elapsed":105301,"internal_node_id":"0.0-3.5-1.5","responseType":"finish","participantID":"sx8u8hz3f2vh06qfz8swk894hn26w51j","conditionNumber":"hint"},{"rt":null,"stimulus":"\u003cp\u003eNow we will show you another configuration of the anagram\u003c/p\u003e","key_press":null,"trial_type":"html-keyboard-response","trial_index":20,"time_elapsed":105303,"internal_node_id":"0.0-3.5-2.5","responseType":"finish","participantID":"sx8u8hz3f2vh06qfz8swk894hn26w51j","conditionNumber":"hint"},{"rt":4412,"responses":"{\"Q0\":2}","trial_type":"survey-likert","trial_index":21,"time_elapsed":109717,"internal_node_id":"0.0-4.0","responseType":"finish","participantID":"sx8u8hz3f2vh06qfz8swk894hn26w51j","conditionNumber":"hint"}],"__v":0}
{"_id":{"$oid":"5d66bde8309d330004d555a0"},"data":{"responseType":"start","participantID":"pwnr87eq027zvmmxfogmotabspj60t5t","conditionNumber":"none"},"__v":0}
{"_id":{"$oid":"5d66be09309d330004d555a1"},"data":{"responseType":"start","participantID":"bvz86xc60xjwgwx2559rwh0xyta4f2ss","conditionNumber":"hint"},"__v":0}
{"_id":{"$oid":"5d66be15309d330004d555a2"},"data":{"responseType":"start","participantID":"rwydy5j85wk35njqa7fqsms4s5ul08p0","conditionNumber":"none"},"__v":0}
{"_id":{"$oid":"5d66be46309d330004d555a3"},"data":[{"rt":4013,"responses":"{\"Q0\":\" I consent to participate \"}","trial_type":"survey-multi-choice","trial_index":0,"time_elapsed":4027,"internal_node_id":"0.0-0.0","responseType":"finish","participantID":"pwnr87eq027zvmmxfogmotabspj60t5t","conditionNumber":"none"},{"trial_type":"call-function","trial_index":1,"time_elapsed":4035,"internal_node_id":"0.0-1.0","responseType":"finish","participantID":"pwnr87eq027zvmmxfogmotabspj60t5t","conditionNumber":"none"},{"view_history":"[{\"page_index\":0,\"viewing_time\":7199},{\"page_index\":1,\"viewing_time\":9511},{\"page_index\":2,\"viewing_time\":3640}]","rt":20351,"trial_type":"instructions","trial_index":2,"time_elapsed":24386,"internal_node_id":"0.0-2.0","responseType":"finish","participantID":"pwnr87eq027zvmmxfogmotabspj60t5t","conditionNumber":"none"},{"rt":null,"stimulus":"\u003cp\u003e\u003ch1\u003eRAGOCIN\u003c/h1\u003e\u003c/p\u003e","key_press":null,"trial_type":"html-keyboard-response","trial_index":3,"time_elapsed":28390,"internal_node_id":"0.0-3.0-0.0","responseType":"finish","participantID":"pwnr87eq027zvmmxfogmotabspj60t5t","conditionNumber":"none"},{"rt":2968,"responses":"{\"Q0\":1}","trial_type":"survey-likert","trial_index":4,"time_elapsed":31362,"internal_node_id":"0.0-3.0-1.0","responseType":"finish","participantID":"pwnr87eq027zvmmxfogmotabspj60t5t","conditionNumber":"none"},{"rt":null,"stimulus":"\u003cp\u003eNow we will show you another configuration of the anagram\u003c/p\u003e","key_press":null,"trial_type":"html-keyboard-response","trial_index":5,"time_elapsed":37366,"internal_node_id":"0.0-3.0-2.0","responseType":"finish","participantID":"pwnr87eq027zvmmxfogmotabspj60t5t","conditionNumber":"none"},{"rt":null,"stimulus":"\u003cp\u003e\u003ch1\u003eGRCINOA\u003c/h1\u003e\u003c/p\u003e","key_press":null,"trial_type":"html-keyboard-response","trial_index":6,"time_elapsed":41370,"internal_node_id":"0.0-3.1-0.1","responseType":"finish","participantID":"pwnr87eq027zvmmxfogmotabspj60t5t","conditionNumber":"none"},{"rt":2634,"responses":"{\"Q0\":1}","trial_type":"survey-likert","trial_index":7,"time_elapsed":44006,"internal_node_id":"0.0-3.1-1.1","responseType":"finish","participantID":"pwnr87eq027zvmmxfogmotabspj60t5t","conditionNumber":"none"},{"rt":null,"stimulus":"\u003cp\u003eNow we will show you another configuration of the anagram\u003c/p\u003e","key_press":null,"trial_type":"html-keyboard-response","trial_index":8,"time_elapsed":50010,"internal_node_id":"0.0-3.1-2.1","responseType":"finish","participantID":"pwnr87eq027zvmmxfogmotabspj60t5t","conditionNumber":"none"},{"rt":null,"stimulus":"\u003cp\u003e\u003ch1\u003eCROAIGN\u003c/h1\u003e\u003c/p\u003e","key_press":null,"trial_type":"html-keyboard-response","trial_index":9,"time_elapsed":54013,"internal_node_id":"0.0-3.2-0.2","responseType":"finish","participantID":"pwnr87eq027zvmmxfogmotabspj60t5t","conditionNumber":"none"},{"rt":2150,"responses":"{\"Q0\":1}","trial_type":"survey-likert","trial_index":10,"time_elapsed":56165,"internal_node_id":"0.0-3.2-1.2","responseType":"finish","participantID":"pwnr87eq027zvmmxfogmotabspj60t5t","conditionNumber":"none"},{"rt":null,"stimulus":"\u003cp\u003eNow we will show you another configuration of the anagram\u003c/p\u003e","key_press":null,"trial_type":"html-keyboard-response","trial_index":11,"time_elapsed":62176,"internal_node_id":"0.0-3.2-2.2","responseType":"finish","participantID":"pwnr87eq027zvmmxfogmotabspj60t5t","conditionNumber":"none"},{"rt":null,"stimulus":"\u003cp\u003e\u003ch1\u003eAGCORNI\u003c/h1\u003e\u003c/p\u003e","key_press":null,"trial_type":"html-keyboard-response","trial_index":12,"time_elapsed":66179,"internal_node_id":"0.0-3.3-0.3","responseType":"finish","participantID":"pwnr87eq027zvmmxfogmotabspj60t5t","conditionNumber":"none"},{"rt":3204,"responses":"{\"Q0\":1}","trial_type":"survey-likert","trial_index":13,"time_elapsed":69386,"internal_node_id":"0.0-3.3-1.3","responseType":"finish","participantID":"pwnr87eq027zvmmxfogmotabspj60t5t","conditionNumber":"none"},{"rt":null,"stimulus":"\u003cp\u003eNow we will show you another configuration of the anagram\u003c/p\u003e","key_press":null,"trial_type":"html-keyboard-response","trial_index":14,"time_elapsed":75389,"internal_node_id":"0.0-3.3-2.3","responseType":"finish","participantID":"pwnr87eq027zvmmxfogmotabspj60t5t","conditionNumber":"none"},{"rt":null,"stimulus":"\u003cp\u003e\u003ch1\u003eNACGIOR\u003c/h1\u003e\u003c/p\u003e","key_press":null,"trial_type":"html-keyboard-response","trial_index":15,"time_elapsed":79391,"internal_node_id":"0.0-3.4-0.4","responseType":"finish","participantID":"pwnr87eq027zvmmxfogmotabspj60t5t","conditionNumber":"none"},{"rt":2107,"responses":"{\"Q0\":1}","trial_type":"survey-likert","trial_index":16,"time_elapsed":81501,"internal_node_id":"0.0-3.4-1.4","responseType":"finish","participantID":"pwnr87eq027zvmmxfogmotabspj60t5t","conditionNumber":"none"},{"rt":null,"stimulus":"\u003cp\u003eNow we will show you another configuration of the anagram\u003c/p\u003e","key_press":null,"trial_type":"html-keyboard-response","trial_index":17,"time_elapsed":87504,"internal_node_id":"0.0-3.4-2.4","responseType":"finish","participantID":"pwnr87eq027zvmmxfogmotabspj60t5t","conditionNumber":"none"},{"rt":null,"stimulus":"\u003cp\u003e\u003ch1\u003eORAGNIC\u003c/h1\u003e\u003c/p\u003e","key_press":null,"trial_type":"html-keyboard-response","trial_index":18,"time_elapsed":91505,"internal_node_id":"0.0-3.5-0.5","responseType":"finish","participantID":"pwnr87eq027zvmmxfogmotabspj60t5t","conditionNumber":"none"},{"rt":2092,"responses":"{\"Q0\":9}","trial_type":"survey-likert","trial_index":19,"time_elapsed":93599,"internal_node_id":"0.0-3.5-1.5","responseType":"finish","participantID":"pwnr87eq027zvmmxfogmotabspj60t5t","conditionNumber":"none"},{"rt":null,"stimulus":"\u003cp\u003eNow we will show you another configuration of the anagram\u003c/p\u003e","key_press":null,"trial_type":"html-keyboard-response","trial_index":20,"time_elapsed":93604,"internal_node_id":"0.0-3.5-2.5","responseType":"finish","participantID":"pwnr87eq027zvmmxfogmotabspj60t5t","conditionNumber":"none"},{"rt":3734,"responses":"{\"Q0\":9}","trial_type":"survey-likert","trial_index":21,"time_elapsed":97341,"internal_node_id":"0.0-4.0","responseType":"finish","participantID":"pwnr87eq027zvmmxfogmotabspj60t5t","conditionNumber":"none"}],"__v":0}
{"_id":{"$oid":"5d66be7d309d330004d555a4"},"data":{"responseType":"start","participantID":"r165q63pud2kumtef1xxaxojwnygpj0f","conditionNumber":"hint"},"__v":0}
{"_id":{"$oid":"5d66be8e309d330004d555a5"},"data":{"responseType":"start","participantID":"x6lcc07c9rqkp5zr7jsptbdz0luw9gu1","conditionNumber":"none"},"__v":0}
{"_id":{"$oid":"5d66be8f309d330004d555a6"},"data":{"responseType":"start","participantID":"t401vqxpebo5o13pf5sovaazrp0pnhul","conditionNumber":"none"},"__v":0}
{"_id":{"$oid":"5d66be93309d330004d555a7"},"data":[{"rt":3888,"responses":"{\"Q0\":\" I consent to participate \"}","trial_type":"survey-multi-choice","trial_index":0,"time_elapsed":3897,"internal_node_id":"0.0-0.0","responseType":"finish","participantID":"rwydy5j85wk35njqa7fqsms4s5ul08p0","conditionNumber":"none"},{"trial_type":"call-function","trial_index":1,"time_elapsed":3921,"internal_node_id":"0.0-1.0","responseType":"finish","participantID":"rwydy5j85wk35njqa7fqsms4s5ul08p0","conditionNumber":"none"},{"view_history":"[{\"page_index\":0,\"viewing_time\":5842},{\"page_index\":1,\"viewing_time\":28823},{\"page_index\":2,\"viewing_time\":3842}]","rt":38508,"trial_type":"instructions","trial_index":2,"time_elapsed":42430,"internal_node_id":"0.0-2.0","responseType":"finish","participantID":"rwydy5j85wk35njqa7fqsms4s5ul08p0","conditionNumber":"none"},{"rt":null,"stimulus":"\u003cp\u003e\u003ch1\u003eRAGOCIN\u003c/h1\u003e\u003c/p\u003e","key_press":null,"trial_type":"html-keyboard-response","trial_index":3,"time_elapsed":46434,"internal_node_id":"0.0-3.0-0.0","responseType":"finish","participantID":"rwydy5j85wk35njqa7fqsms4s5ul08p0","conditionNumber":"none"},{"rt":5894,"responses":"{\"Q0\":2}","trial_type":"survey-likert","trial_index":4,"time_elapsed":52331,"internal_node_id":"0.0-3.0-1.0","responseType":"finish","participantID":"rwydy5j85wk35njqa7fqsms4s5ul08p0","conditionNumber":"none"},{"rt":null,"stimulus":"\u003cp\u003eNow we will show you another configuration of the anagram\u003c/p\u003e","key_press":null,"trial_type":"html-keyboard-response","trial_index":5,"time_elapsed":58334,"internal_node_id":"0.0-3.0-2.0","responseType":"finish","participantID":"rwydy5j85wk35njqa7fqsms4s5ul08p0","conditionNumber":"none"},{"rt":null,"stimulus":"\u003cp\u003e\u003ch1\u003eGRCINOA\u003c/h1\u003e\u003c/p\u003e","key_press":null,"trial_type":"html-keyboard-response","trial_index":6,"time_elapsed":62336,"internal_node_id":"0.0-3.1-0.1","responseType":"finish","participantID":"rwydy5j85wk35njqa7fqsms4s5ul08p0","conditionNumber":"none"},{"rt":5335,"responses":"{\"Q0\":2}","trial_type":"survey-likert","trial_index":7,"time_elapsed":67674,"internal_node_id":"0.0-3.1-1.1","responseType":"finish","participantID":"rwydy5j85wk35njqa7fqsms4s5ul08p0","conditionNumber":"none"},{"rt":null,"stimulus":"\u003cp\u003eNow we will show you another configuration of the anagram\u003c/p\u003e","key_press":null,"trial_type":"html-keyboard-response","trial_index":8,"time_elapsed":73677,"internal_node_id":"0.0-3.1-2.1","responseType":"finish","participantID":"rwydy5j85wk35njqa7fqsms4s5ul08p0","conditionNumber":"none"},{"rt":null,"stimulus":"\u003cp\u003e\u003ch1\u003eCROAIGN\u003c/h1\u003e\u003c/p\u003e","key_press":null,"trial_type":"html-keyboard-response","trial_index":9,"time_elapsed":77678,"internal_node_id":"0.0-3.2-0.2","responseType":"finish","participantID":"rwydy5j85wk35njqa7fqsms4s5ul08p0","conditionNumber":"none"},{"rt":3717,"responses":"{\"Q0\":1}","trial_type":"survey-likert","trial_index":10,"time_elapsed":81398,"internal_node_id":"0.0-3.2-1.2","responseType":"finish","participantID":"rwydy5j85wk35njqa7fqsms4s5ul08p0","conditionNumber":"none"},{"rt":null,"stimulus":"\u003cp\u003eNow we will show you another configuration of the anagram\u003c/p\u003e","key_press":null,"trial_type":"html-keyboard-response","trial_index":11,"time_elapsed":87400,"internal_node_id":"0.0-3.2-2.2","responseType":"finish","participantID":"rwydy5j85wk35njqa7fqsms4s5ul08p0","conditionNumber":"none"},{"rt":null,"stimulus":"\u003cp\u003e\u003ch1\u003eAGCORNI\u003c/h1\u003e\u003c/p\u003e","key_press":null,"trial_type":"html-keyboard-response","trial_index":12,"time_elapsed":91402,"internal_node_id":"0.0-3.3-0.3","responseType":"finish","participantID":"rwydy5j85wk35njqa7fqsms4s5ul08p0","conditionNumber":"none"},{"rt":3950,"responses":"{\"Q0\":1}","trial_type":"survey-likert","trial_index":13,"time_elapsed":95354,"internal_node_id":"0.0-3.3-1.3","responseType":"finish","participantID":"rwydy5j85wk35njqa7fqsms4s5ul08p0","conditionNumber":"none"},{"rt":null,"stimulus":"\u003cp\u003eNow we will show you another configuration of the anagram\u003c/p\u003e","key_press":null,"trial_type":"html-keyboard-response","trial_index":14,"time_elapsed":101356,"internal_node_id":"0.0-3.3-2.3","responseType":"finish","participantID":"rwydy5j85wk35njqa7fqsms4s5ul08p0","conditionNumber":"none"},{"rt":null,"stimulus":"\u003cp\u003e\u003ch1\u003eNACGIOR\u003c/h1\u003e\u003c/p\u003e","key_press":null,"trial_type":"html-keyboard-response","trial_index":15,"time_elapsed":105358,"internal_node_id":"0.0-3.4-0.4","responseType":"finish","participantID":"rwydy5j85wk35njqa7fqsms4s5ul08p0","conditionNumber":"none"},{"rt":3222,"responses":"{\"Q0\":1}","trial_type":"survey-likert","trial_index":16,"time_elapsed":108582,"internal_node_id":"0.0-3.4-1.4","responseType":"finish","participantID":"rwydy5j85wk35njqa7fqsms4s5ul08p0","conditionNumber":"none"},{"rt":null,"stimulus":"\u003cp\u003eNow we will show you another configuration of the anagram\u003c/p\u003e","key_press":null,"trial_type":"html-keyboard-response","trial_index":17,"time_elapsed":114584,"internal_node_id":"0.0-3.4-2.4","responseType":"finish","participantID":"rwydy5j85wk35njqa7fqsms4s5ul08p0","conditionNumber":"none"},{"rt":null,"stimulus":"\u003cp\u003e\u003ch1\u003eORAGNIC\u003c/h1\u003e\u003c/p\u003e","key_press":null,"trial_type":"html-keyboard-response","trial_index":18,"time_elapsed":118585,"internal_node_id":"0.0-3.5-0.5","responseType":"finish","participantID":"rwydy5j85wk35njqa7fqsms4s5ul08p0","conditionNumber":"none"},{"rt":2749,"responses":"{\"Q0\":9}","trial_type":"survey-likert","trial_index":19,"time_elapsed":121337,"internal_node_id":"0.0-3.5-1.5","responseType":"finish","participantID":"rwydy5j85wk35njqa7fqsms4s5ul08p0","conditionNumber":"none"},{"rt":null,"stimulus":"\u003cp\u003eNow we will show you another configuration of the anagram\u003c/p\u003e","key_press":null,"trial_type":"html-keyboard-response","trial_index":20,"time_elapsed":121344,"internal_node_id":"0.0-3.5-2.5","responseType":"finish","participantID":"rwydy5j85wk35njqa7fqsms4s5ul08p0","conditionNumber":"none"},{"rt":7766,"responses":"{\"Q0\":9}","trial_type":"survey-likert","trial_index":21,"time_elapsed":129112,"internal_node_id":"0.0-4.0","responseType":"finish","participantID":"rwydy5j85wk35njqa7fqsms4s5ul08p0","conditionNumber":"none"}],"__v":0}
{"_id":{"$oid":"5d66beb1309d330004d555a8"},"data":{"responseType":"start","participantID":"wducezumlrr8j8ndweqbrat1k039tdvy","conditionNumber":"hint"},"__v":0}
{"_id":{"$oid":"5d66becf309d330004d555a9"},"data":{"responseType":"start","participantID":"q5w2ccfqzv7033kak4qg6qau1kj92md5","conditionNumber":"none"},"__v":0}
{"_id":{"$oid":"5d66bed5309d330004d555aa"},"data":[{"rt":4353,"responses":"{\"Q0\":\" I consent to participate \"}","trial_type":"survey-multi-choice","trial_index":0,"time_elapsed":4358,"internal_node_id":"0.0-0.0","responseType":"finish","participantID":"r165q63pud2kumtef1xxaxojwnygpj0f","conditionNumber":"hint"},{"trial_type":"call-function","trial_index":1,"time_elapsed":4379,"internal_node_id":"0.0-1.0","responseType":"finish","participantID":"r165q63pud2kumtef1xxaxojwnygpj0f","conditionNumber":"hint"},{"view_history":"[{\"page_index\":0,\"viewing_time\":4385},{\"page_index\":1,\"viewing_time\":8943},{\"page_index\":2,\"viewing_time\":1560}]","rt":14889,"trial_type":"instructions","trial_index":2,"time_elapsed":19268,"internal_node_id":"0.0-2.0","responseType":"finish","participantID":"r165q63pud2kumtef1xxaxojwnygpj0f","conditionNumber":"hint"},{"rt":null,"stimulus":"\u003cp\u003e\u003ch1\u003eRAGOCIN\u003c/h1\u003e\u003c/p\u003e","key_press":null,"trial_type":"html-keyboard-response","trial_index":3,"time_elapsed":23271,"internal_node_id":"0.0-3.0-0.0","responseType":"finish","participantID":"r165q63pud2kumtef1xxaxojwnygpj0f","conditionNumber":"hint"},{"rt":2939,"responses":"{\"Q0\":0}","trial_type":"survey-likert","trial_index":4,"time_elapsed":26213,"internal_node_id":"0.0-3.0-1.0","responseType":"finish","participantID":"r165q63pud2kumtef1xxaxojwnygpj0f","conditionNumber":"hint"},{"rt":null,"stimulus":"\u003cp\u003eNow we will show you another configuration of the anagram\u003c/p\u003e","key_press":null,"trial_type":"html-keyboard-response","trial_index":5,"time_elapsed":32228,"internal_node_id":"0.0-3.0-2.0","responseType":"finish","participantID":"r165q63pud2kumtef1xxaxojwnygpj0f","conditionNumber":"hint"},{"rt":null,"stimulus":"\u003cp\u003e\u003ch1\u003eGRCINOA\u003c/h1\u003e\u003c/p\u003e","key_press":null,"trial_type":"html-keyboard-response","trial_index":6,"time_elapsed":36230,"internal_node_id":"0.0-3.1-0.1","responseType":"finish","participantID":"r165q63pud2kumtef1xxaxojwnygpj0f","conditionNumber":"hint"},{"rt":2300,"responses":"{\"Q0\":0}","trial_type":"survey-likert","trial_index":7,"time_elapsed":38532,"internal_node_id":"0.0-3.1-1.1","responseType":"finish","participantID":"r165q63pud2kumtef1xxaxojwnygpj0f","conditionNumber":"hint"},{"rt":null,"stimulus":"\u003cp\u003eNow we will show you another configuration of the anagram\u003c/p\u003e","key_press":null,"trial_type":"html-keyboard-response","trial_index":8,"time_elapsed":44546,"internal_node_id":"0.0-3.1-2.1","responseType":"finish","participantID":"r165q63pud2kumtef1xxaxojwnygpj0f","conditionNumber":"hint"},{"rt":null,"stimulus":"\u003cp\u003e\u003ch1\u003eCROAIGN\u003c/h1\u003e\u003c/p\u003e","key_press":null,"trial_type":"html-keyboard-response","trial_index":9,"time_elapsed":48547,"internal_node_id":"0.0-3.2-0.2","responseType":"finish","participantID":"r165q63pud2kumtef1xxaxojwnygpj0f","conditionNumber":"hint"},{"rt":1855,"responses":"{\"Q0\":0}","trial_type":"survey-likert","trial_index":10,"time_elapsed":50403,"internal_node_id":"0.0-3.2-1.2","responseType":"finish","participantID":"r165q63pud2kumtef1xxaxojwnygpj0f","conditionNumber":"hint"},{"rt":null,"stimulus":"\u003cp\u003eNow we will show you another configuration of the anagram\u003c/p\u003e","key_press":null,"trial_type":"html-keyboard-response","trial_index":11,"time_elapsed":56422,"internal_node_id":"0.0-3.2-2.2","responseType":"finish","participantID":"r165q63pud2kumtef1xxaxojwnygpj0f","conditionNumber":"hint"},{"rt":null,"stimulus":"\u003cp\u003e\u003ch1\u003eAGCORNI\u003c/h1\u003e\u003c/p\u003e","key_press":null,"trial_type":"html-keyboard-response","trial_index":12,"time_elapsed":60422,"internal_node_id":"0.0-3.3-0.3","responseType":"finish","participantID":"r165q63pud2kumtef1xxaxojwnygpj0f","conditionNumber":"hint"},{"rt":3159,"responses":"{\"Q0\":0}","trial_type":"survey-likert","trial_index":13,"time_elapsed":63583,"internal_node_id":"0.0-3.3-1.3","responseType":"finish","participantID":"r165q63pud2kumtef1xxaxojwnygpj0f","conditionNumber":"hint"},{"rt":null,"stimulus":"\u003cp\u003eNow we will show you another configuration of the anagram\u003c/p\u003e","key_press":null,"trial_type":"html-keyboard-response","trial_index":14,"time_elapsed":69598,"internal_node_id":"0.0-3.3-2.3","responseType":"finish","participantID":"r165q63pud2kumtef1xxaxojwnygpj0f","conditionNumber":"hint"},{"rt":null,"stimulus":"\u003cp\u003e\u003ch1\u003eNACGIOR\u003c/h1\u003e\u003c/p\u003e","key_press":null,"trial_type":"html-keyboard-response","trial_index":15,"time_elapsed":73599,"internal_node_id":"0.0-3.4-0.4","responseType":"finish","participantID":"r165q63pud2kumtef1xxaxojwnygpj0f","conditionNumber":"hint"},{"rt":1966,"responses":"{\"Q0\":0}","trial_type":"survey-likert","trial_index":16,"time_elapsed":75567,"internal_node_id":"0.0-3.4-1.4","responseType":"finish","participantID":"r165q63pud2kumtef1xxaxojwnygpj0f","conditionNumber":"hint"},{"rt":null,"stimulus":"\u003cp\u003eOkay, we have troubled you enough. To help you, we will next show you a much \u003cb\u003eeasier\u003c/b\u003e configuration of this anagram\u003c/p\u003e","key_press":null,"trial_type":"html-keyboard-response","trial_index":17,"time_elapsed":81580,"internal_node_id":"0.0-3.4-2.4","responseType":"finish","participantID":"r165q63pud2kumtef1xxaxojwnygpj0f","conditionNumber":"hint"},{"rt":null,"stimulus":"\u003cp\u003e\u003ch1\u003eORAGNIC\u003c/h1\u003e\u003c/p\u003e","key_press":null,"trial_type":"html-keyboard-response","trial_index":18,"time_elapsed":85582,"internal_node_id":"0.0-3.5-0.5","responseType":"finish","participantID":"r165q63pud2kumtef1xxaxojwnygpj0f","conditionNumber":"hint"},{"rt":2535,"responses":"{\"Q0\":9}","trial_type":"survey-likert","trial_index":19,"time_elapsed":88119,"internal_node_id":"0.0-3.5-1.5","responseType":"finish","participantID":"r165q63pud2kumtef1xxaxojwnygpj0f","conditionNumber":"hint"},{"rt":null,"stimulus":"\u003cp\u003eNow we will show you another configuration of the anagram\u003c/p\u003e","key_press":null,"trial_type":"html-keyboard-response","trial_index":20,"time_elapsed":88134,"internal_node_id":"0.0-3.5-2.5","responseType":"finish","participantID":"r165q63pud2kumtef1xxaxojwnygpj0f","conditionNumber":"hint"},{"rt":4062,"responses":"{\"Q0\":9}","trial_type":"survey-likert","trial_index":21,"time_elapsed":92199,"internal_node_id":"0.0-4.0","responseType":"finish","participantID":"r165q63pud2kumtef1xxaxojwnygpj0f","conditionNumber":"hint"}],"__v":0}
{"_id":{"$oid":"5d66bee3309d330004d555ab"},"data":{"responseType":"start","participantID":"9fv436fqfk1hxlub4cat8tb7ya5pqwup","conditionNumber":"hint"},"__v":0}
{"_id":{"$oid":"5d66beed309d330004d555ac"},"data":[{"rt":26066,"responses":"{\"Q0\":\" I consent to participate \"}","trial_type":"survey-multi-choice","trial_index":0,"time_elapsed":26071,"internal_node_id":"0.0-0.0","responseType":"finish","participantID":"x6lcc07c9rqkp5zr7jsptbdz0luw9gu1","conditionNumber":"none"},{"trial_type":"call-function","trial_index":1,"time_elapsed":26076,"internal_node_id":"0.0-1.0","responseType":"finish","participantID":"x6lcc07c9rqkp5zr7jsptbdz0luw9gu1","conditionNumber":"none"},{"view_history":"[{\"page_index\":0,\"viewing_time\":13299},{\"page_index\":1,\"viewing_time\":748},{\"page_index\":2,\"viewing_time\":695}]","rt":14743,"trial_type":"instructions","trial_index":2,"time_elapsed":40819,"internal_node_id":"0.0-2.0","responseType":"finish","participantID":"x6lcc07c9rqkp5zr7jsptbdz0luw9gu1","conditionNumber":"none"},{"rt":null,"stimulus":"\u003cp\u003e\u003ch1\u003eRAGOCIN\u003c/h1\u003e\u003c/p\u003e","key_press":null,"trial_type":"html-keyboard-response","trial_index":3,"time_elapsed":44821,"internal_node_id":"0.0-3.0-0.0","responseType":"finish","participantID":"x6lcc07c9rqkp5zr7jsptbdz0luw9gu1","conditionNumber":"none"},{"rt":3911,"responses":"{\"Q0\":9}","trial_type":"survey-likert","trial_index":4,"time_elapsed":48735,"internal_node_id":"0.0-3.0-1.0","responseType":"finish","participantID":"x6lcc07c9rqkp5zr7jsptbdz0luw9gu1","conditionNumber":"none"},{"rt":null,"stimulus":"\u003cp\u003eNow we will show you another configuration of the anagram\u003c/p\u003e","key_press":null,"trial_type":"html-keyboard-response","trial_index":5,"time_elapsed":54737,"internal_node_id":"0.0-3.0-2.0","responseType":"finish","participantID":"x6lcc07c9rqkp5zr7jsptbdz0luw9gu1","conditionNumber":"none"},{"rt":null,"stimulus":"\u003cp\u003e\u003ch1\u003eGRCINOA\u003c/h1\u003e\u003c/p\u003e","key_press":null,"trial_type":"html-keyboard-response","trial_index":6,"time_elapsed":58739,"internal_node_id":"0.0-3.1-0.1","responseType":"finish","participantID":"x6lcc07c9rqkp5zr7jsptbdz0luw9gu1","conditionNumber":"none"},{"rt":5695,"responses":"{\"Q0\":9}","trial_type":"survey-likert","trial_index":7,"time_elapsed":64436,"internal_node_id":"0.0-3.1-1.1","responseType":"finish","participantID":"x6lcc07c9rqkp5zr7jsptbdz0luw9gu1","conditionNumber":"none"},{"rt":null,"stimulus":"\u003cp\u003eNow we will show you another configuration of the anagram\u003c/p\u003e","key_press":null,"trial_type":"html-keyboard-response","trial_index":8,"time_elapsed":70438,"internal_node_id":"0.0-3.1-2.1","responseType":"finish","participantID":"x6lcc07c9rqkp5zr7jsptbdz0luw9gu1","conditionNumber":"none"},{"rt":null,"stimulus":"\u003cp\u003e\u003ch1\u003eCROAIGN\u003c/h1\u003e\u003c/p\u003e","key_press":null,"trial_type":"html-keyboard-response","trial_index":9,"time_elapsed":74439,"internal_node_id":"0.0-3.2-0.2","responseType":"finish","participantID":"x6lcc07c9rqkp5zr7jsptbdz0luw9gu1","conditionNumber":"none"},{"rt":4177,"responses":"{\"Q0\":9}","trial_type":"survey-likert","trial_index":10,"time_elapsed":78618,"internal_node_id":"0.0-3.2-1.2","responseType":"finish","participantID":"x6lcc07c9rqkp5zr7jsptbdz0luw9gu1","conditionNumber":"none"},{"rt":null,"stimulus":"\u003cp\u003eNow we will show you another configuration of the anagram\u003c/p\u003e","key_press":null,"trial_type":"html-keyboard-response","trial_index":11,"time_elapsed":84620,"internal_node_id":"0.0-3.2-2.2","responseType":"finish","participantID":"x6lcc07c9rqkp5zr7jsptbdz0luw9gu1","conditionNumber":"none"},{"rt":null,"stimulus":"\u003cp\u003e\u003ch1\u003eAGCORNI\u003c/h1\u003e\u003c/p\u003e","key_press":null,"trial_type":"html-keyboard-response","trial_index":12,"time_elapsed":88621,"internal_node_id":"0.0-3.3-0.3","responseType":"finish","participantID":"x6lcc07c9rqkp5zr7jsptbdz0luw9gu1","conditionNumber":"none"},{"rt":4320,"responses":"{\"Q0\":9}","trial_type":"survey-likert","trial_index":13,"time_elapsed":92943,"internal_node_id":"0.0-3.3-1.3","responseType":"finish","participantID":"x6lcc07c9rqkp5zr7jsptbdz0luw9gu1","conditionNumber":"none"},{"rt":null,"stimulus":"\u003cp\u003eNow we will show you another configuration of the anagram\u003c/p\u003e","key_press":null,"trial_type":"html-keyboard-response","trial_index":14,"time_elapsed":98945,"internal_node_id":"0.0-3.3-2.3","responseType":"finish","participantID":"x6lcc07c9rqkp5zr7jsptbdz0luw9gu1","conditionNumber":"none"},{"rt":null,"stimulus":"\u003cp\u003e\u003ch1\u003eNACGIOR\u003c/h1\u003e\u003c/p\u003e","key_press":null,"trial_type":"html-keyboard-response","trial_index":15,"time_elapsed":102946,"internal_node_id":"0.0-3.4-0.4","responseType":"finish","participantID":"x6lcc07c9rqkp5zr7jsptbdz0luw9gu1","conditionNumber":"none"},{"rt":2040,"responses":"{\"Q0\":9}","trial_type":"survey-likert","trial_index":16,"time_elapsed":104988,"internal_node_id":"0.0-3.4-1.4","responseType":"finish","participantID":"x6lcc07c9rqkp5zr7jsptbdz0luw9gu1","conditionNumber":"none"},{"rt":null,"stimulus":"\u003cp\u003eNow we will show you another configuration of the anagram\u003c/p\u003e","key_press":null,"trial_type":"html-keyboard-response","trial_index":17,"time_elapsed":110989,"internal_node_id":"0.0-3.4-2.4","responseType":"finish","participantID":"x6lcc07c9rqkp5zr7jsptbdz0luw9gu1","conditionNumber":"none"},{"rt":null,"stimulus":"\u003cp\u003e\u003ch1\u003eORAGNIC\u003c/h1\u003e\u003c/p\u003e","key_press":null,"trial_type":"html-keyboard-response","trial_index":18,"time_elapsed":114991,"internal_node_id":"0.0-3.5-0.5","responseType":"finish","participantID":"x6lcc07c9rqkp5zr7jsptbdz0luw9gu1","conditionNumber":"none"},{"rt":1918,"responses":"{\"Q0\":9}","trial_type":"survey-likert","trial_index":19,"time_elapsed":116910,"internal_node_id":"0.0-3.5-1.5","responseType":"finish","participantID":"x6lcc07c9rqkp5zr7jsptbdz0luw9gu1","conditionNumber":"none"},{"rt":null,"stimulus":"\u003cp\u003eNow we will show you another configuration of the anagram\u003c/p\u003e","key_press":null,"trial_type":"html-keyboard-response","trial_index":20,"time_elapsed":116912,"internal_node_id":"0.0-3.5-2.5","responseType":"finish","participantID":"x6lcc07c9rqkp5zr7jsptbdz0luw9gu1","conditionNumber":"none"},{"rt":3891,"responses":"{\"Q0\":0}","trial_type":"survey-likert","trial_index":21,"time_elapsed":120805,"internal_node_id":"0.0-4.0","responseType":"finish","participantID":"x6lcc07c9rqkp5zr7jsptbdz0luw9gu1","conditionNumber":"none"}],"__v":0}
{"_id":{"$oid":"5d66bf27309d330004d555ad"},"data":[{"rt":4323,"responses":"{\"Q0\":\" I consent to participate \"}","trial_type":"survey-multi-choice","trial_index":0,"time_elapsed":4328,"internal_node_id":"0.0-0.0","responseType":"finish","participantID":"wducezumlrr8j8ndweqbrat1k039tdvy","conditionNumber":"hint"},{"trial_type":"call-function","trial_index":1,"time_elapsed":4362,"internal_node_id":"0.0-1.0","responseType":"finish","participantID":"wducezumlrr8j8ndweqbrat1k039tdvy","conditionNumber":"hint"},{"view_history":"[{\"page_index\":0,\"viewing_time\":15517},{\"page_index\":1,\"viewing_time\":15274},{\"page_index\":2,\"viewing_time\":3900}]","rt":34691,"trial_type":"instructions","trial_index":2,"time_elapsed":39055,"internal_node_id":"0.0-2.0","responseType":"finish","participantID":"wducezumlrr8j8ndweqbrat1k039tdvy","conditionNumber":"hint"},{"rt":null,"stimulus":"\u003cp\u003e\u003ch1\u003eRAGOCIN\u003c/h1\u003e\u003c/p\u003e","key_press":null,"trial_type":"html-keyboard-response","trial_index":3,"time_elapsed":43056,"internal_node_id":"0.0-3.0-0.0","responseType":"finish","participantID":"wducezumlrr8j8ndweqbrat1k039tdvy","conditionNumber":"hint"},{"rt":8175,"responses":"{\"Q0\":9}","trial_type":"survey-likert","trial_index":4,"time_elapsed":51234,"internal_node_id":"0.0-3.0-1.0","responseType":"finish","participantID":"wducezumlrr8j8ndweqbrat1k039tdvy","conditionNumber":"hint"},{"rt":null,"stimulus":"\u003cp\u003eNow we will show you another configuration of the anagram\u003c/p\u003e","key_press":null,"trial_type":"html-keyboard-response","trial_index":5,"time_elapsed":57267,"internal_node_id":"0.0-3.0-2.0","responseType":"finish","participantID":"wducezumlrr8j8ndweqbrat1k039tdvy","conditionNumber":"hint"},{"rt":null,"stimulus":"\u003cp\u003e\u003ch1\u003eGRCINOA\u003c/h1\u003e\u003c/p\u003e","key_press":null,"trial_type":"html-keyboard-response","trial_index":6,"time_elapsed":61269,"internal_node_id":"0.0-3.1-0.1","responseType":"finish","participantID":"wducezumlrr8j8ndweqbrat1k039tdvy","conditionNumber":"hint"},{"rt":2385,"responses":"{\"Q0\":9}","trial_type":"survey-likert","trial_index":7,"time_elapsed":63656,"internal_node_id":"0.0-3.1-1.1","responseType":"finish","participantID":"wducezumlrr8j8ndweqbrat1k039tdvy","conditionNumber":"hint"},{"rt":null,"stimulus":"\u003cp\u003eNow we will show you another configuration of the anagram\u003c/p\u003e","key_press":null,"trial_type":"html-keyboard-response","trial_index":8,"time_elapsed":69686,"internal_node_id":"0.0-3.1-2.1","responseType":"finish","participantID":"wducezumlrr8j8ndweqbrat1k039tdvy","conditionNumber":"hint"},{"rt":null,"stimulus":"\u003cp\u003e\u003ch1\u003eCROAIGN\u003c/h1\u003e\u003c/p\u003e","key_press":null,"trial_type":"html-keyboard-response","trial_index":9,"time_elapsed":73687,"internal_node_id":"0.0-3.2-0.2","responseType":"finish","participantID":"wducezumlrr8j8ndweqbrat1k039tdvy","conditionNumber":"hint"},{"rt":2079,"responses":"{\"Q0\":9}","trial_type":"survey-likert","trial_index":10,"time_elapsed":75768,"internal_node_id":"0.0-3.2-1.2","responseType":"finish","participantID":"wducezumlrr8j8ndweqbrat1k039tdvy","conditionNumber":"hint"},{"rt":null,"stimulus":"\u003cp\u003eNow we will show you another configuration of the anagram\u003c/p\u003e","key_press":null,"trial_type":"html-keyboard-response","trial_index":11,"time_elapsed":81800,"internal_node_id":"0.0-3.2-2.2","responseType":"finish","participantID":"wducezumlrr8j8ndweqbrat1k039tdvy","conditionNumber":"hint"},{"rt":null,"stimulus":"\u003cp\u003e\u003ch1\u003eAGCORNI\u003c/h1\u003e\u003c/p\u003e","key_press":null,"trial_type":"html-keyboard-response","trial_index":12,"time_elapsed":85801,"internal_node_id":"0.0-3.3-0.3","responseType":"finish","participantID":"wducezumlrr8j8ndweqbrat1k039tdvy","conditionNumber":"hint"},{"rt":3367,"responses":"{\"Q0\":9}","trial_type":"survey-likert","trial_index":13,"time_elapsed":89169,"internal_node_id":"0.0-3.3-1.3","responseType":"finish","participantID":"wducezumlrr8j8ndweqbrat1k039tdvy","conditionNumber":"hint"},{"rt":null,"stimulus":"\u003cp\u003eNow we will show you another configuration of the anagram\u003c/p\u003e","key_press":null,"trial_type":"html-keyboard-response","trial_index":14,"time_elapsed":95201,"internal_node_id":"0.0-3.3-2.3","responseType":"finish","participantID":"wducezumlrr8j8ndweqbrat1k039tdvy","conditionNumber":"hint"},{"rt":null,"stimulus":"\u003cp\u003e\u003ch1\u003eNACGIOR\u003c/h1\u003e\u003c/p\u003e","key_press":null,"trial_type":"html-keyboard-response","trial_index":15,"time_elapsed":99213,"internal_node_id":"0.0-3.4-0.4","responseType":"finish","participantID":"wducezumlrr8j8ndweqbrat1k039tdvy","conditionNumber":"hint"},{"rt":2840,"responses":"{\"Q0\":9}","trial_type":"survey-likert","trial_index":16,"time_elapsed":102063,"internal_node_id":"0.0-3.4-1.4","responseType":"finish","participantID":"wducezumlrr8j8ndweqbrat1k039tdvy","conditionNumber":"hint"},{"rt":null,"stimulus":"\u003cp\u003eOkay, we have troubled you enough. To help you, we will next show you a much \u003cb\u003eeasier\u003c/b\u003e configuration of this anagram\u003c/p\u003e","key_press":null,"trial_type":"html-keyboard-response","trial_index":17,"time_elapsed":108094,"internal_node_id":"0.0-3.4-2.4","responseType":"finish","participantID":"wducezumlrr8j8ndweqbrat1k039tdvy","conditionNumber":"hint"},{"rt":null,"stimulus":"\u003cp\u003e\u003ch1\u003eORAGNIC\u003c/h1\u003e\u003c/p\u003e","key_press":null,"trial_type":"html-keyboard-response","trial_index":18,"time_elapsed":112097,"internal_node_id":"0.0-3.5-0.5","responseType":"finish","participantID":"wducezumlrr8j8ndweqbrat1k039tdvy","conditionNumber":"hint"},{"rt":4882,"responses":"{\"Q0\":9}","trial_type":"survey-likert","trial_index":19,"time_elapsed":116980,"internal_node_id":"0.0-3.5-1.5","responseType":"finish","participantID":"wducezumlrr8j8ndweqbrat1k039tdvy","conditionNumber":"hint"},{"rt":null,"stimulus":"\u003cp\u003eNow we will show you another configuration of the anagram\u003c/p\u003e","key_press":null,"trial_type":"html-keyboard-response","trial_index":20,"time_elapsed":117014,"internal_node_id":"0.0-3.5-2.5","responseType":"finish","participantID":"wducezumlrr8j8ndweqbrat1k039tdvy","conditionNumber":"hint"},{"rt":5703,"responses":"{\"Q0\":0}","trial_type":"survey-likert","trial_index":21,"time_elapsed":122718,"internal_node_id":"0.0-4.0","responseType":"finish","participantID":"wducezumlrr8j8ndweqbrat1k039tdvy","conditionNumber":"hint"}],"__v":0}
{"_id":{"$oid":"5d66bf32309d330004d555ae"},"data":[{"rt":3706,"responses":"{\"Q0\":\" I consent to participate \"}","trial_type":"survey-multi-choice","trial_index":0,"time_elapsed":3712,"internal_node_id":"0.0-0.0","responseType":"finish","participantID":"9fv436fqfk1hxlub4cat8tb7ya5pqwup","conditionNumber":"hint"},{"trial_type":"call-function","trial_index":1,"time_elapsed":3721,"internal_node_id":"0.0-1.0","responseType":"finish","participantID":"9fv436fqfk1hxlub4cat8tb7ya5pqwup","conditionNumber":"hint"},{"view_history":"[{\"page_index\":0,\"viewing_time\":1869},{\"page_index\":1,\"viewing_time\":1707},{\"page_index\":2,\"viewing_time\":1002}]","rt":4579,"trial_type":"instructions","trial_index":2,"time_elapsed":8301,"internal_node_id":"0.0-2.0","responseType":"finish","participantID":"9fv436fqfk1hxlub4cat8tb7ya5pqwup","conditionNumber":"hint"},{"rt":null,"stimulus":"\u003cp\u003e\u003ch1\u003eRAGOCIN\u003c/h1\u003e\u003c/p\u003e","key_press":null,"trial_type":"html-keyboard-response","trial_index":3,"time_elapsed":12304,"internal_node_id":"0.0-3.0-0.0","responseType":"finish","participantID":"9fv436fqfk1hxlub4cat8tb7ya5pqwup","conditionNumber":"hint"},{"rt":3042,"responses":"{\"Q0\":0}","trial_type":"survey-likert","trial_index":4,"time_elapsed":15350,"internal_node_id":"0.0-3.0-1.0","responseType":"finish","participantID":"9fv436fqfk1hxlub4cat8tb7ya5pqwup","conditionNumber":"hint"},{"rt":null,"stimulus":"\u003cp\u003eNow we will show you another configuration of the anagram\u003c/p\u003e","key_press":null,"trial_type":"html-keyboard-response","trial_index":5,"time_elapsed":21357,"internal_node_id":"0.0-3.0-2.0","responseType":"finish","participantID":"9fv436fqfk1hxlub4cat8tb7ya5pqwup","conditionNumber":"hint"},{"rt":null,"stimulus":"\u003cp\u003e\u003ch1\u003eGRCINOA\u003c/h1\u003e\u003c/p\u003e","key_press":null,"trial_type":"html-keyboard-response","trial_index":6,"time_elapsed":25360,"internal_node_id":"0.0-3.1-0.1","responseType":"finish","participantID":"9fv436fqfk1hxlub4cat8tb7ya5pqwup","conditionNumber":"hint"},{"rt":1881,"responses":"{\"Q0\":0}","trial_type":"survey-likert","trial_index":7,"time_elapsed":27245,"internal_node_id":"0.0-3.1-1.1","responseType":"finish","participantID":"9fv436fqfk1hxlub4cat8tb7ya5pqwup","conditionNumber":"hint"},{"rt":null,"stimulus":"\u003cp\u003eNow we will show you another configuration of the anagram\u003c/p\u003e","key_press":null,"trial_type":"html-keyboard-response","trial_index":8,"time_elapsed":33253,"internal_node_id":"0.0-3.1-2.1","responseType":"finish","participantID":"9fv436fqfk1hxlub4cat8tb7ya5pqwup","conditionNumber":"hint"},{"rt":null,"stimulus":"\u003cp\u003e\u003ch1\u003eCROAIGN\u003c/h1\u003e\u003c/p\u003e","key_press":null,"trial_type":"html-keyboard-response","trial_index":9,"time_elapsed":37258,"internal_node_id":"0.0-3.2-0.2","responseType":"finish","participantID":"9fv436fqfk1hxlub4cat8tb7ya5pqwup","conditionNumber":"hint"},{"rt":2725,"responses":"{\"Q0\":0}","trial_type":"survey-likert","trial_index":10,"time_elapsed":39985,"internal_node_id":"0.0-3.2-1.2","responseType":"finish","participantID":"9fv436fqfk1hxlub4cat8tb7ya5pqwup","conditionNumber":"hint"},{"rt":null,"stimulus":"\u003cp\u003eNow we will show you another configuration of the anagram\u003c/p\u003e","key_press":null,"trial_type":"html-keyboard-response","trial_index":11,"time_elapsed":45994,"internal_node_id":"0.0-3.2-2.2","responseType":"finish","participantID":"9fv436fqfk1hxlub4cat8tb7ya5pqwup","conditionNumber":"hint"},{"rt":null,"stimulus":"\u003cp\u003e\u003ch1\u003eAGCORNI\u003c/h1\u003e\u003c/p\u003e","key_press":null,"trial_type":"html-keyboard-response","trial_index":12,"time_elapsed":50000,"internal_node_id":"0.0-3.3-0.3","responseType":"finish","participantID":"9fv436fqfk1hxlub4cat8tb7ya5pqwup","conditionNumber":"hint"},{"rt":1683,"responses":"{\"Q0\":0}","trial_type":"survey-likert","trial_index":13,"time_elapsed":51686,"internal_node_id":"0.0-3.3-1.3","responseType":"finish","participantID":"9fv436fqfk1hxlub4cat8tb7ya5pqwup","conditionNumber":"hint"},{"rt":null,"stimulus":"\u003cp\u003eNow we will show you another configuration of the anagram\u003c/p\u003e","key_press":null,"trial_type":"html-keyboard-response","trial_index":14,"time_elapsed":57706,"internal_node_id":"0.0-3.3-2.3","responseType":"finish","participantID":"9fv436fqfk1hxlub4cat8tb7ya5pqwup","conditionNumber":"hint"},{"rt":null,"stimulus":"\u003cp\u003e\u003ch1\u003eNACGIOR\u003c/h1\u003e\u003c/p\u003e","key_press":null,"trial_type":"html-keyboard-response","trial_index":15,"time_elapsed":62475,"internal_node_id":"0.0-3.4-0.4","responseType":"finish","participantID":"9fv436fqfk1hxlub4cat8tb7ya5pqwup","conditionNumber":"hint"},{"rt":4099,"responses":"{\"Q0\":0}","trial_type":"survey-likert","trial_index":16,"time_elapsed":66577,"internal_node_id":"0.0-3.4-1.4","responseType":"finish","participantID":"9fv436fqfk1hxlub4cat8tb7ya5pqwup","conditionNumber":"hint"},{"rt":null,"stimulus":"\u003cp\u003eOkay, we have troubled you enough. To help you, we will next show you a much \u003cb\u003eeasier\u003c/b\u003e configuration of this anagram\u003c/p\u003e","key_press":null,"trial_type":"html-keyboard-response","trial_index":17,"time_elapsed":72586,"internal_node_id":"0.0-3.4-2.4","responseType":"finish","participantID":"9fv436fqfk1hxlub4cat8tb7ya5pqwup","conditionNumber":"hint"},{"rt":null,"stimulus":"\u003cp\u003e\u003ch1\u003eORAGNIC\u003c/h1\u003e\u003c/p\u003e","key_press":null,"trial_type":"html-keyboard-response","trial_index":18,"time_elapsed":76587,"internal_node_id":"0.0-3.5-0.5","responseType":"finish","participantID":"9fv436fqfk1hxlub4cat8tb7ya5pqwup","conditionNumber":"hint"},{"rt":2831,"responses":"{\"Q0\":9}","trial_type":"survey-likert","trial_index":19,"time_elapsed":79420,"internal_node_id":"0.0-3.5-1.5","responseType":"finish","participantID":"9fv436fqfk1hxlub4cat8tb7ya5pqwup","conditionNumber":"hint"},{"rt":null,"stimulus":"\u003cp\u003eNow we will show you another configuration of the anagram\u003c/p\u003e","key_press":null,"trial_type":"html-keyboard-response","trial_index":20,"time_elapsed":79428,"internal_node_id":"0.0-3.5-2.5","responseType":"finish","participantID":"9fv436fqfk1hxlub4cat8tb7ya5pqwup","conditionNumber":"hint"},{"rt":3331,"responses":"{\"Q0\":0}","trial_type":"survey-likert","trial_index":21,"time_elapsed":82760,"internal_node_id":"0.0-4.0","responseType":"finish","participantID":"9fv436fqfk1hxlub4cat8tb7ya5pqwup","conditionNumber":"hint"}],"__v":0}
{"_id":{"$oid":"5d66bf3a309d330004d555af"},"data":{"responseType":"start","participantID":"jeh9n752nammw71ru69u1n3df0obdn68","conditionNumber":"hint"},"__v":0}
{"_id":{"$oid":"5d66bf41309d330004d555b0"},"data":[{"rt":5746,"responses":"{\"Q0\":\" I consent to participate \"}","trial_type":"survey-multi-choice","trial_index":0,"time_elapsed":5768,"internal_node_id":"0.0-0.0","responseType":"finish","participantID":"t401vqxpebo5o13pf5sovaazrp0pnhul","conditionNumber":"none"},{"trial_type":"call-function","trial_index":1,"time_elapsed":5798,"internal_node_id":"0.0-1.0","responseType":"finish","participantID":"t401vqxpebo5o13pf5sovaazrp0pnhul","conditionNumber":"none"},{"view_history":"[{\"page_index\":0,\"viewing_time\":58305},{\"page_index\":1,\"viewing_time\":34615},{\"page_index\":2,\"viewing_time\":1990}]","rt":94913,"trial_type":"instructions","trial_index":2,"time_elapsed":100712,"internal_node_id":"0.0-2.0","responseType":"finish","participantID":"t401vqxpebo5o13pf5sovaazrp0pnhul","conditionNumber":"none"},{"rt":null,"stimulus":"\u003cp\u003e\u003ch1\u003eRAGOCIN\u003c/h1\u003e\u003c/p\u003e","key_press":null,"trial_type":"html-keyboard-response","trial_index":3,"time_elapsed":104717,"internal_node_id":"0.0-3.0-0.0","responseType":"finish","participantID":"t401vqxpebo5o13pf5sovaazrp0pnhul","conditionNumber":"none"},{"rt":5388,"responses":"{\"Q0\":0}","trial_type":"survey-likert","trial_index":4,"time_elapsed":110111,"internal_node_id":"0.0-3.0-1.0","responseType":"finish","participantID":"t401vqxpebo5o13pf5sovaazrp0pnhul","conditionNumber":"none"},{"rt":null,"stimulus":"\u003cp\u003eNow we will show you another configuration of the anagram\u003c/p\u003e","key_press":null,"trial_type":"html-keyboard-response","trial_index":5,"time_elapsed":116124,"internal_node_id":"0.0-3.0-2.0","responseType":"finish","participantID":"t401vqxpebo5o13pf5sovaazrp0pnhul","conditionNumber":"none"},{"rt":null,"stimulus":"\u003cp\u003e\u003ch1\u003eGRCINOA\u003c/h1\u003e\u003c/p\u003e","key_press":null,"trial_type":"html-keyboard-response","trial_index":6,"time_elapsed":120128,"internal_node_id":"0.0-3.1-0.1","responseType":"finish","participantID":"t401vqxpebo5o13pf5sovaazrp0pnhul","conditionNumber":"none"},{"rt":3542,"responses":"{\"Q0\":0}","trial_type":"survey-likert","trial_index":7,"time_elapsed":123674,"internal_node_id":"0.0-3.1-1.1","responseType":"finish","participantID":"t401vqxpebo5o13pf5sovaazrp0pnhul","conditionNumber":"none"},{"rt":null,"stimulus":"\u003cp\u003eNow we will show you another configuration of the anagram\u003c/p\u003e","key_press":null,"trial_type":"html-keyboard-response","trial_index":8,"time_elapsed":129686,"internal_node_id":"0.0-3.1-2.1","responseType":"finish","participantID":"t401vqxpebo5o13pf5sovaazrp0pnhul","conditionNumber":"none"},{"rt":null,"stimulus":"\u003cp\u003e\u003ch1\u003eCROAIGN\u003c/h1\u003e\u003c/p\u003e","key_press":null,"trial_type":"html-keyboard-response","trial_index":9,"time_elapsed":133690,"internal_node_id":"0.0-3.2-0.2","responseType":"finish","participantID":"t401vqxpebo5o13pf5sovaazrp0pnhul","conditionNumber":"none"},{"rt":4431,"responses":"{\"Q0\":1}","trial_type":"survey-likert","trial_index":10,"time_elapsed":138124,"internal_node_id":"0.0-3.2-1.2","responseType":"finish","participantID":"t401vqxpebo5o13pf5sovaazrp0pnhul","conditionNumber":"none"},{"rt":null,"stimulus":"\u003cp\u003eNow we will show you another configuration of the anagram\u003c/p\u003e","key_press":null,"trial_type":"html-keyboard-response","trial_index":11,"time_elapsed":144137,"internal_node_id":"0.0-3.2-2.2","responseType":"finish","participantID":"t401vqxpebo5o13pf5sovaazrp0pnhul","conditionNumber":"none"},{"rt":null,"stimulus":"\u003cp\u003e\u003ch1\u003eAGCORNI\u003c/h1\u003e\u003c/p\u003e","key_press":null,"trial_type":"html-keyboard-response","trial_index":12,"time_elapsed":148139,"internal_node_id":"0.0-3.3-0.3","responseType":"finish","participantID":"t401vqxpebo5o13pf5sovaazrp0pnhul","conditionNumber":"none"},{"rt":3209,"responses":"{\"Q0\":0}","trial_type":"survey-likert","trial_index":13,"time_elapsed":151351,"internal_node_id":"0.0-3.3-1.3","responseType":"finish","participantID":"t401vqxpebo5o13pf5sovaazrp0pnhul","conditionNumber":"none"},{"rt":null,"stimulus":"\u003cp\u003eNow we will show you another configuration of the anagram\u003c/p\u003e","key_press":null,"trial_type":"html-keyboard-response","trial_index":14,"time_elapsed":157364,"internal_node_id":"0.0-3.3-2.3","responseType":"finish","participantID":"t401vqxpebo5o13pf5sovaazrp0pnhul","conditionNumber":"none"},{"rt":null,"stimulus":"\u003cp\u003e\u003ch1\u003eNACGIOR\u003c/h1\u003e\u003c/p\u003e","key_press":null,"trial_type":"html-keyboard-response","trial_index":15,"time_elapsed":161366,"internal_node_id":"0.0-3.4-0.4","responseType":"finish","participantID":"t401vqxpebo5o13pf5sovaazrp0pnhul","conditionNumber":"none"},{"rt":2154,"responses":"{\"Q0\":0}","trial_type":"survey-likert","trial_index":16,"time_elapsed":163523,"internal_node_id":"0.0-3.4-1.4","responseType":"finish","participantID":"t401vqxpebo5o13pf5sovaazrp0pnhul","conditionNumber":"none"},{"rt":null,"stimulus":"\u003cp\u003eNow we will show you another configuration of the anagram\u003c/p\u003e","key_press":null,"trial_type":"html-keyboard-response","trial_index":17,"time_elapsed":169537,"internal_node_id":"0.0-3.4-2.4","responseType":"finish","participantID":"t401vqxpebo5o13pf5sovaazrp0pnhul","conditionNumber":"none"},{"rt":null,"stimulus":"\u003cp\u003e\u003ch1\u003eORAGNIC\u003c/h1\u003e\u003c/p\u003e","key_press":null,"trial_type":"html-keyboard-response","trial_index":18,"time_elapsed":173540,"internal_node_id":"0.0-3.5-0.5","responseType":"finish","participantID":"t401vqxpebo5o13pf5sovaazrp0pnhul","conditionNumber":"none"},{"rt":3554,"responses":"{\"Q0\":9}","trial_type":"survey-likert","trial_index":19,"time_elapsed":177097,"internal_node_id":"0.0-3.5-1.5","responseType":"finish","participantID":"t401vqxpebo5o13pf5sovaazrp0pnhul","conditionNumber":"none"},{"rt":null,"stimulus":"\u003cp\u003eNow we will show you another configuration of the anagram\u003c/p\u003e","key_press":null,"trial_type":"html-keyboard-response","trial_index":20,"time_elapsed":177112,"internal_node_id":"0.0-3.5-2.5","responseType":"finish","participantID":"t401vqxpebo5o13pf5sovaazrp0pnhul","conditionNumber":"none"},{"rt":6244,"responses":"{\"Q0\":9}","trial_type":"survey-likert","trial_index":21,"time_elapsed":183362,"internal_node_id":"0.0-4.0","responseType":"finish","participantID":"t401vqxpebo5o13pf5sovaazrp0pnhul","conditionNumber":"none"}],"__v":0}
{"_id":{"$oid":"5d66bf43309d330004d555b1"},"data":[{"rt":4270,"responses":"{\"Q0\":\" I consent to participate \"}","trial_type":"survey-multi-choice","trial_index":0,"time_elapsed":4273,"internal_node_id":"0.0-0.0","responseType":"finish","participantID":"q5w2ccfqzv7033kak4qg6qau1kj92md5","conditionNumber":"none"},{"trial_type":"call-function","trial_index":1,"time_elapsed":4275,"internal_node_id":"0.0-1.0","responseType":"finish","participantID":"q5w2ccfqzv7033kak4qg6qau1kj92md5","conditionNumber":"none"},{"view_history":"[{\"page_index\":0,\"viewing_time\":20404},{\"page_index\":1,\"viewing_time\":2199},{\"page_index\":2,\"viewing_time\":2800}]","rt":25404,"trial_type":"instructions","trial_index":2,"time_elapsed":29680,"internal_node_id":"0.0-2.0","responseType":"finish","participantID":"q5w2ccfqzv7033kak4qg6qau1kj92md5","conditionNumber":"none"},{"rt":null,"stimulus":"\u003cp\u003e\u003ch1\u003eRAGOCIN\u003c/h1\u003e\u003c/p\u003e","key_press":null,"trial_type":"html-keyboard-response","trial_index":3,"time_elapsed":33681,"internal_node_id":"0.0-3.0-0.0","responseType":"finish","participantID":"q5w2ccfqzv7033kak4qg6qau1kj92md5","conditionNumber":"none"},{"rt":4198,"responses":"{\"Q0\":1}","trial_type":"survey-likert","trial_index":4,"time_elapsed":37880,"internal_node_id":"0.0-3.0-1.0","responseType":"finish","participantID":"q5w2ccfqzv7033kak4qg6qau1kj92md5","conditionNumber":"none"},{"rt":null,"stimulus":"\u003cp\u003eNow we will show you another configuration of the anagram\u003c/p\u003e","key_press":null,"trial_type":"html-keyboard-response","trial_index":5,"time_elapsed":43881,"internal_node_id":"0.0-3.0-2.0","responseType":"finish","participantID":"q5w2ccfqzv7033kak4qg6qau1kj92md5","conditionNumber":"none"},{"rt":null,"stimulus":"\u003cp\u003e\u003ch1\u003eGRCINOA\u003c/h1\u003e\u003c/p\u003e","key_press":null,"trial_type":"html-keyboard-response","trial_index":6,"time_elapsed":47883,"internal_node_id":"0.0-3.1-0.1","responseType":"finish","participantID":"q5w2ccfqzv7033kak4qg6qau1kj92md5","conditionNumber":"none"},{"rt":4947,"responses":"{\"Q0\":7}","trial_type":"survey-likert","trial_index":7,"time_elapsed":52832,"internal_node_id":"0.0-3.1-1.1","responseType":"finish","participantID":"q5w2ccfqzv7033kak4qg6qau1kj92md5","conditionNumber":"none"},{"rt":null,"stimulus":"\u003cp\u003eNow we will show you another configuration of the anagram\u003c/p\u003e","key_press":null,"trial_type":"html-keyboard-response","trial_index":8,"time_elapsed":58834,"internal_node_id":"0.0-3.1-2.1","responseType":"finish","participantID":"q5w2ccfqzv7033kak4qg6qau1kj92md5","conditionNumber":"none"},{"rt":null,"stimulus":"\u003cp\u003e\u003ch1\u003eCROAIGN\u003c/h1\u003e\u003c/p\u003e","key_press":null,"trial_type":"html-keyboard-response","trial_index":9,"time_elapsed":62835,"internal_node_id":"0.0-3.2-0.2","responseType":"finish","participantID":"q5w2ccfqzv7033kak4qg6qau1kj92md5","conditionNumber":"none"},{"rt":2539,"responses":"{\"Q0\":9}","trial_type":"survey-likert","trial_index":10,"time_elapsed":65376,"internal_node_id":"0.0-3.2-1.2","responseType":"finish","participantID":"q5w2ccfqzv7033kak4qg6qau1kj92md5","conditionNumber":"none"},{"rt":null,"stimulus":"\u003cp\u003eNow we will show you another configuration of the anagram\u003c/p\u003e","key_press":null,"trial_type":"html-keyboard-response","trial_index":11,"time_elapsed":71376,"internal_node_id":"0.0-3.2-2.2","responseType":"finish","participantID":"q5w2ccfqzv7033kak4qg6qau1kj92md5","conditionNumber":"none"},{"rt":null,"stimulus":"\u003cp\u003e\u003ch1\u003eAGCORNI\u003c/h1\u003e\u003c/p\u003e","key_press":null,"trial_type":"html-keyboard-response","trial_index":12,"time_elapsed":75377,"internal_node_id":"0.0-3.3-0.3","responseType":"finish","participantID":"q5w2ccfqzv7033kak4qg6qau1kj92md5","conditionNumber":"none"},{"rt":3037,"responses":"{\"Q0\":9}","trial_type":"survey-likert","trial_index":13,"time_elapsed":78415,"internal_node_id":"0.0-3.3-1.3","responseType":"finish","participantID":"q5w2ccfqzv7033kak4qg6qau1kj92md5","conditionNumber":"none"},{"rt":null,"stimulus":"\u003cp\u003eNow we will show you another configuration of the anagram\u003c/p\u003e","key_press":null,"trial_type":"html-keyboard-response","trial_index":14,"time_elapsed":84416,"internal_node_id":"0.0-3.3-2.3","responseType":"finish","participantID":"q5w2ccfqzv7033kak4qg6qau1kj92md5","conditionNumber":"none"},{"rt":null,"stimulus":"\u003cp\u003e\u003ch1\u003eNACGIOR\u003c/h1\u003e\u003c/p\u003e","key_press":null,"trial_type":"html-keyboard-response","trial_index":15,"time_elapsed":88417,"internal_node_id":"0.0-3.4-0.4","responseType":"finish","participantID":"q5w2ccfqzv7033kak4qg6qau1kj92md5","conditionNumber":"none"},{"rt":2677,"responses":"{\"Q0\":9}","trial_type":"survey-likert","trial_index":16,"time_elapsed":91095,"internal_node_id":"0.0-3.4-1.4","responseType":"finish","participantID":"q5w2ccfqzv7033kak4qg6qau1kj92md5","conditionNumber":"none"},{"rt":null,"stimulus":"\u003cp\u003eNow we will show you another configuration of the anagram\u003c/p\u003e","key_press":null,"trial_type":"html-keyboard-response","trial_index":17,"time_elapsed":97096,"internal_node_id":"0.0-3.4-2.4","responseType":"finish","participantID":"q5w2ccfqzv7033kak4qg6qau1kj92md5","conditionNumber":"none"},{"rt":null,"stimulus":"\u003cp\u003e\u003ch1\u003eORAGNIC\u003c/h1\u003e\u003c/p\u003e","key_press":null,"trial_type":"html-keyboard-response","trial_index":18,"time_elapsed":101098,"internal_node_id":"0.0-3.5-0.5","responseType":"finish","participantID":"q5w2ccfqzv7033kak4qg6qau1kj92md5","conditionNumber":"none"},{"rt":3869,"responses":"{\"Q0\":9}","trial_type":"survey-likert","trial_index":19,"time_elapsed":104967,"internal_node_id":"0.0-3.5-1.5","responseType":"finish","participantID":"q5w2ccfqzv7033kak4qg6qau1kj92md5","conditionNumber":"none"},{"rt":null,"stimulus":"\u003cp\u003eNow we will show you another configuration of the anagram\u003c/p\u003e","key_press":null,"trial_type":"html-keyboard-response","trial_index":20,"time_elapsed":104969,"internal_node_id":"0.0-3.5-2.5","responseType":"finish","participantID":"q5w2ccfqzv7033kak4qg6qau1kj92md5","conditionNumber":"none"},{"rt":15278,"responses":"{\"Q0\":5}","trial_type":"survey-likert","trial_index":21,"time_elapsed":120247,"internal_node_id":"0.0-4.0","responseType":"finish","participantID":"q5w2ccfqzv7033kak4qg6qau1kj92md5","conditionNumber":"none"}],"__v":0}
{"_id":{"$oid":"5d66bf87309d330004d555b2"},"data":[{"rt":190508,"responses":"{\"Q0\":\" I consent to participate \"}","trial_type":"survey-multi-choice","trial_index":0,"time_elapsed":190512,"internal_node_id":"0.0-0.0","responseType":"finish","participantID":"jeh9n752nammw71ru69u1n3df0obdn68","conditionNumber":"hint"},{"trial_type":"call-function","trial_index":1,"time_elapsed":190519,"internal_node_id":"0.0-1.0","responseType":"finish","participantID":"jeh9n752nammw71ru69u1n3df0obdn68","conditionNumber":"hint"},{"view_history":"[{\"page_index\":0,\"viewing_time\":2462},{\"page_index\":1,\"viewing_time\":1774},{\"page_index\":2,\"viewing_time\":1182}]","rt":5418,"trial_type":"instructions","trial_index":2,"time_elapsed":195937,"internal_node_id":"0.0-2.0","responseType":"finish","participantID":"jeh9n752nammw71ru69u1n3df0obdn68","conditionNumber":"hint"},{"rt":null,"stimulus":"\u003cp\u003e\u003ch1\u003eRAGOCIN\u003c/h1\u003e\u003c/p\u003e","key_press":null,"trial_type":"html-keyboard-response","trial_index":3,"time_elapsed":199940,"internal_node_id":"0.0-3.0-0.0","responseType":"finish","participantID":"jeh9n752nammw71ru69u1n3df0obdn68","conditionNumber":"hint"},{"rt":2894,"responses":"{\"Q0\":0}","trial_type":"survey-likert","trial_index":4,"time_elapsed":202836,"internal_node_id":"0.0-3.0-1.0","responseType":"finish","participantID":"jeh9n752nammw71ru69u1n3df0obdn68","conditionNumber":"hint"},{"rt":null,"stimulus":"\u003cp\u003eNow we will show you another configuration of the anagram\u003c/p\u003e","key_press":null,"trial_type":"html-keyboard-response","trial_index":5,"time_elapsed":208840,"internal_node_id":"0.0-3.0-2.0","responseType":"finish","participantID":"jeh9n752nammw71ru69u1n3df0obdn68","conditionNumber":"hint"},{"rt":null,"stimulus":"\u003cp\u003e\u003ch1\u003eGRCINOA\u003c/h1\u003e\u003c/p\u003e","key_press":null,"trial_type":"html-keyboard-response","trial_index":6,"time_elapsed":212841,"internal_node_id":"0.0-3.1-0.1","responseType":"finish","participantID":"jeh9n752nammw71ru69u1n3df0obdn68","conditionNumber":"hint"},{"rt":1996,"responses":"{\"Q0\":0}","trial_type":"survey-likert","trial_index":7,"time_elapsed":214839,"internal_node_id":"0.0-3.1-1.1","responseType":"finish","participantID":"jeh9n752nammw71ru69u1n3df0obdn68","conditionNumber":"hint"},{"rt":null,"stimulus":"\u003cp\u003eNow we will show you another configuration of the anagram\u003c/p\u003e","key_press":null,"trial_type":"html-keyboard-response","trial_index":8,"time_elapsed":220842,"internal_node_id":"0.0-3.1-2.1","responseType":"finish","participantID":"jeh9n752nammw71ru69u1n3df0obdn68","conditionNumber":"hint"},{"rt":null,"stimulus":"\u003cp\u003e\u003ch1\u003eCROAIGN\u003c/h1\u003e\u003c/p\u003e","key_press":null,"trial_type":"html-keyboard-response","trial_index":9,"time_elapsed":224844,"internal_node_id":"0.0-3.2-0.2","responseType":"finish","participantID":"jeh9n752nammw71ru69u1n3df0obdn68","conditionNumber":"hint"},{"rt":1932,"responses":"{\"Q0\":0}","trial_type":"survey-likert","trial_index":10,"time_elapsed":226777,"internal_node_id":"0.0-3.2-1.2","responseType":"finish","participantID":"jeh9n752nammw71ru69u1n3df0obdn68","conditionNumber":"hint"},{"rt":null,"stimulus":"\u003cp\u003eNow we will show you another configuration of the anagram\u003c/p\u003e","key_press":null,"trial_type":"html-keyboard-response","trial_index":11,"time_elapsed":232782,"internal_node_id":"0.0-3.2-2.2","responseType":"finish","participantID":"jeh9n752nammw71ru69u1n3df0obdn68","conditionNumber":"hint"},{"rt":null,"stimulus":"\u003cp\u003e\u003ch1\u003eAGCORNI\u003c/h1\u003e\u003c/p\u003e","key_press":null,"trial_type":"html-keyboard-response","trial_index":12,"time_elapsed":236783,"internal_node_id":"0.0-3.3-0.3","responseType":"finish","participantID":"jeh9n752nammw71ru69u1n3df0obdn68","conditionNumber":"hint"},{"rt":2483,"responses":"{\"Q0\":1}","trial_type":"survey-likert","trial_index":13,"time_elapsed":239267,"internal_node_id":"0.0-3.3-1.3","responseType":"finish","participantID":"jeh9n752nammw71ru69u1n3df0obdn68","conditionNumber":"hint"},{"rt":null,"stimulus":"\u003cp\u003eNow we will show you another configuration of the anagram\u003c/p\u003e","key_press":null,"trial_type":"html-keyboard-response","trial_index":14,"time_elapsed":245271,"internal_node_id":"0.0-3.3-2.3","responseType":"finish","participantID":"jeh9n752nammw71ru69u1n3df0obdn68","conditionNumber":"hint"},{"rt":null,"stimulus":"\u003cp\u003e\u003ch1\u003eNACGIOR\u003c/h1\u003e\u003c/p\u003e","key_press":null,"trial_type":"html-keyboard-response","trial_index":15,"time_elapsed":249273,"internal_node_id":"0.0-3.4-0.4","responseType":"finish","participantID":"jeh9n752nammw71ru69u1n3df0obdn68","conditionNumber":"hint"},{"rt":2850,"responses":"{\"Q0\":1}","trial_type":"survey-likert","trial_index":16,"time_elapsed":252124,"internal_node_id":"0.0-3.4-1.4","responseType":"finish","participantID":"jeh9n752nammw71ru69u1n3df0obdn68","conditionNumber":"hint"},{"rt":null,"stimulus":"\u003cp\u003eOkay, we have troubled you enough. To help you, we will next show you a much \u003cb\u003eeasier\u003c/b\u003e configuration of this anagram\u003c/p\u003e","key_press":null,"trial_type":"html-keyboard-response","trial_index":17,"time_elapsed":258128,"internal_node_id":"0.0-3.4-2.4","responseType":"finish","participantID":"jeh9n752nammw71ru69u1n3df0obdn68","conditionNumber":"hint"},{"rt":null,"stimulus":"\u003cp\u003e\u003ch1\u003eORAGNIC\u003c/h1\u003e\u003c/p\u003e","key_press":null,"trial_type":"html-keyboard-response","trial_index":18,"time_elapsed":262418,"internal_node_id":"0.0-3.5-0.5","responseType":"finish","participantID":"jeh9n752nammw71ru69u1n3df0obdn68","conditionNumber":"hint"},{"rt":1487,"responses":"{\"Q0\":9}","trial_type":"survey-likert","trial_index":19,"time_elapsed":263907,"internal_node_id":"0.0-3.5-1.5","responseType":"finish","participantID":"jeh9n752nammw71ru69u1n3df0obdn68","conditionNumber":"hint"},{"rt":null,"stimulus":"\u003cp\u003eNow we will show you another configuration of the anagram\u003c/p\u003e","key_press":null,"trial_type":"html-keyboard-response","trial_index":20,"time_elapsed":263910,"internal_node_id":"0.0-3.5-2.5","responseType":"finish","participantID":"jeh9n752nammw71ru69u1n3df0obdn68","conditionNumber":"hint"},{"rt":3110,"responses":"{\"Q0\":9}","trial_type":"survey-likert","trial_index":21,"time_elapsed":267021,"internal_node_id":"0.0-4.0","responseType":"finish","participantID":"jeh9n752nammw71ru69u1n3df0obdn68","conditionNumber":"hint"}],"__v":0}
{"_id":{"$oid":"5d66bfd9309d330004d555b3"},"data":{"responseType":"start","participantID":"wcax99bjcch55v2o15myewz1d4yg2lwq","conditionNumber":"hint"},"__v":0}
{"_id":{"$oid":"5d66c00a309d330004d555b4"},"data":{"responseType":"start","participantID":"m6xupe43ahye7sp7u452n5d27pp4ckjm","conditionNumber":"hint"},"__v":0}
{"_id":{"$oid":"5d66c018309d330004d555b5"},"data":{"responseType":"start","participantID":"5abckbunluec9a3sm4wu8uudolppedpt","conditionNumber":"hint"},"__v":0}
{"_id":{"$oid":"5d66c019309d330004d555b6"},"data":{"responseType":"start","participantID":"2ystw4aly7xvjms06ydrxnvrw3zkgxwr","conditionNumber":"hint"},"__v":0}
{"_id":{"$oid":"5d66c030309d330004d555b7"},"data":{"responseType":"start","participantID":"vj7z4edcfkmclyt6optrfbsa35ae33zb","conditionNumber":"hint"},"__v":0}
