{"_id":{"$oid":"5d6dd2d128988500046dc72a"},"data":{"responseType":"start","participantID":"xxlw1mhz79ngxyzxkvaueq5x7ua38fv1","conditionNumber":"expected"},"__v":0}
{"_id":{"$oid":"5d6dd2e228988500046dc72b"},"data":{"responseType":"start","participantID":"mnanbgz19ezd000b0mecj3q1wk3gc1pd","conditionNumber":"expected"},"__v":0}
{"_id":{"$oid":"5d6dd39628988500046dc72c"},"data":{"responseType":"start","participantID":"5p9c48cfhhwf4qloo8lz0gc51le4qb3j","conditionNumber":"expected"},"__v":0}
{"_id":{"$oid":"5d6dd3e328988500046dc72d"},"data":[{"rt":23255,"responses":"{\"Q0\":\" I consent to participate \"}","trial_type":"survey-multi-choice","trial_index":0,"time_elapsed":23268,"internal_node_id":"0.0-0.0","responseType":"finish","participantID":"xxlw1mhz79ngxyzxkvaueq5x7ua38fv1","conditionNumber":"expected"},{"trial_type":"call-function","trial_index":1,"time_elapsed":23280,"internal_node_id":"0.0-1.0","responseType":"finish","participantID":"xxlw1mhz79ngxyzxkvaueq5x7ua38fv1","conditionNumber":"expected"},{"rt":21386,"stimulus":"\u003ch1 id=\"welcome\"\u003eWelcome\u003c/h1\u003e\n\u003cp\u003eWelcome to the Experiment! In this experiment, we will give you two \u003cem\u003eanagrams\u003c/em\u003e to solve. An \u003cem\u003eanagram\u003c/em\u003e is simply a word or phrase formed by rearranging the letters of another word or phrase. For example:\u003c/p\u003e\n\u003cul\u003e\n\u003cli\u003e\u003cstrong\u003ePOKER\u003c/strong\u003e is an anagram of \u003cstrong\u003ePKOER\u003c/strong\u003e\u003c/li\u003e\n\u003cli\u003e\u003cstrong\u003ePIKE\u003c/strong\u003e is an anagram of \u003cstrong\u003eKEPI\u003c/strong\u003e\u003c/li\u003e\n\u003c/ul\u003e\n\u003cp\u003eWe kindly request for your full attention for the experiment and ask you to refrain from using Google or other search engines. \u003c/p\u003e\n\u003cp\u003ePlease press the \u003cstrong\u003e'n' key\u003c/strong\u003e to continue once you understand.\u003c/p\u003e","key_press":78,"trial_type":"html-keyboard-response","trial_index":2,"time_elapsed":44671,"internal_node_id":"0.0-2.0","responseType":"finish","participantID":"xxlw1mhz79ngxyzxkvaueq5x7ua38fv1","conditionNumber":"expected"},{"rt":24399,"stimulus":"\u003ch1 id=\"instructions\"\u003eInstructions\u003c/h1\u003e\n\u003cp\u003eWhen you click next, you will be presented with an anagram that will be displayed for 4 seconds. Following that, the \u003cem\u003esame\u003c/em\u003e anagram will be presented to you again in a \u003cem\u003edifferent\u003c/em\u003e configuration for 4 seconds. \u003c/p\u003e\n\u003cp\u003eIn total, we will present the anagram to you in \u003cstrong\u003eseven\u003c/strong\u003e different configurations. If you have not figured the answer to the anagram by then, then at the \u003cstrong\u003eeighth\u003c/strong\u003e time, we will show a much \u003cstrong\u003eeasier\u003c/strong\u003e configuration of that anagram to you. \u003c/p\u003e\n\u003cp\u003eAs an example, you may be presented with random configurations such as: \u003cstrong\u003eONLEM\u003c/strong\u003e, \u003cstrong\u003eMOELN\u003c/strong\u003e, \u003cstrong\u003eNMEOL\u003c/strong\u003e, and finally the easier configuration, \u003cstrong\u003eLMEON\u003c/strong\u003e. Here, these configurations come from the same anagram, LEMON and your goal was figuring out the underlying anagram. \u003c/p\u003e\n\u003cp\u003ePlease press the \u003cstrong\u003e'm' key\u003c/strong\u003e to continue once you understand.\u003c/p\u003e","key_press":77,"trial_type":"html-keyboard-response","trial_index":3,"time_elapsed":69071,"internal_node_id":"0.0-3.0","responseType":"finish","participantID":"xxlw1mhz79ngxyzxkvaueq5x7ua38fv1","conditionNumber":"expected"},{"rt":9897,"stimulus":"\u003ch1 id=\"instructions\"\u003eInstructions\u003c/h1\u003e\n\u003cp\u003eNow, we will present you the first anagram which you have to solve. We will present the anagram to you in \u003cstrong\u003eseven\u003c/strong\u003e different configurations. If you have not figured the answer to the anagram by then, then we will show a much \u003cstrong\u003eeasier\u003c/strong\u003e configuration to you in the \u003cstrong\u003eeighth\u003c/strong\u003e iteration. \u003c/p\u003e\n\u003cp\u003ePlease press the \u003cstrong\u003e'b' key\u003c/strong\u003e to continue.\u003c/p\u003e","key_press":66,"trial_type":"html-keyboard-response","trial_index":4,"time_elapsed":78969,"internal_node_id":"0.0-4.0","responseType":"finish","participantID":"xxlw1mhz79ngxyzxkvaueq5x7ua38fv1","conditionNumber":"expected"},{"rt":null,"stimulus":"\u003cp\u003e\u003ch1\u003eIACGNOR\u003c/h1\u003e\u003c/p\u003e","key_press":null,"trial_type":"html-keyboard-response","trial_index":5,"time_elapsed":82972,"internal_node_id":"0.0-5.0-0.0","responseType":"finish","participantID":"xxlw1mhz79ngxyzxkvaueq5x7ua38fv1","conditionNumber":"expected"},{"rt":5352,"responses":"{\"Q0\":0}","trial_type":"survey-likert","trial_index":6,"time_elapsed":88328,"internal_node_id":"0.0-5.0-1.0","responseType":"finish","participantID":"xxlw1mhz79ngxyzxkvaueq5x7ua38fv1","conditionNumber":"expected"},{"rt":null,"stimulus":"\u003cp\u003eNow we will show you another configuration of the anagram\u003c/p\u003e","key_press":null,"trial_type":"html-keyboard-response","trial_index":7,"time_elapsed":94331,"internal_node_id":"0.0-5.0-2.0","responseType":"finish","participantID":"xxlw1mhz79ngxyzxkvaueq5x7ua38fv1","conditionNumber":"expected"},{"rt":null,"stimulus":"\u003cp\u003e\u003ch1\u003eRAIOCNG\u003c/h1\u003e\u003c/p\u003e","key_press":null,"trial_type":"html-keyboard-response","trial_index":8,"time_elapsed":98336,"internal_node_id":"0.0-5.1-0.1","responseType":"finish","participantID":"xxlw1mhz79ngxyzxkvaueq5x7ua38fv1","conditionNumber":"expected"},{"rt":2641,"responses":"{\"Q0\":0}","trial_type":"survey-likert","trial_index":9,"time_elapsed":100979,"internal_node_id":"0.0-5.1-1.1","responseType":"finish","participantID":"xxlw1mhz79ngxyzxkvaueq5x7ua38fv1","conditionNumber":"expected"},{"rt":null,"stimulus":"\u003cp\u003eNow we will show you another configuration of the anagram\u003c/p\u003e","key_press":null,"trial_type":"html-keyboard-response","trial_index":10,"time_elapsed":106983,"internal_node_id":"0.0-5.1-2.1","responseType":"finish","participantID":"xxlw1mhz79ngxyzxkvaueq5x7ua38fv1","conditionNumber":"expected"},{"rt":null,"stimulus":"\u003cp\u003e\u003ch1\u003eNCARGOI\u003c/h1\u003e\u003c/p\u003e","key_press":null,"trial_type":"html-keyboard-response","trial_index":11,"time_elapsed":110988,"internal_node_id":"0.0-5.2-0.2","responseType":"finish","participantID":"xxlw1mhz79ngxyzxkvaueq5x7ua38fv1","conditionNumber":"expected"},{"rt":2587,"responses":"{\"Q0\":0}","trial_type":"survey-likert","trial_index":12,"time_elapsed":113577,"internal_node_id":"0.0-5.2-1.2","responseType":"finish","participantID":"xxlw1mhz79ngxyzxkvaueq5x7ua38fv1","conditionNumber":"expected"},{"rt":null,"stimulus":"\u003cp\u003eNow we will show you another configuration of the anagram\u003c/p\u003e","key_press":null,"trial_type":"html-keyboard-response","trial_index":13,"time_elapsed":119583,"internal_node_id":"0.0-5.2-2.2","responseType":"finish","participantID":"xxlw1mhz79ngxyzxkvaueq5x7ua38fv1","conditionNumber":"expected"},{"rt":null,"stimulus":"\u003cp\u003e\u003ch1\u003eCGOAIRN\u003c/h1\u003e\u003c/p\u003e","key_press":null,"trial_type":"html-keyboard-response","trial_index":14,"time_elapsed":123584,"internal_node_id":"0.0-5.3-0.3","responseType":"finish","participantID":"xxlw1mhz79ngxyzxkvaueq5x7ua38fv1","conditionNumber":"expected"},{"rt":2411,"responses":"{\"Q0\":0}","trial_type":"survey-likert","trial_index":15,"time_elapsed":125998,"internal_node_id":"0.0-5.3-1.3","responseType":"finish","participantID":"xxlw1mhz79ngxyzxkvaueq5x7ua38fv1","conditionNumber":"expected"},{"rt":null,"stimulus":"\u003cp\u003eNow we will show you another configuration of the anagram\u003c/p\u003e","key_press":null,"trial_type":"html-keyboard-response","trial_index":16,"time_elapsed":132001,"internal_node_id":"0.0-5.3-2.3","responseType":"finish","participantID":"xxlw1mhz79ngxyzxkvaueq5x7ua38fv1","conditionNumber":"expected"},{"rt":null,"stimulus":"\u003cp\u003e\u003ch1\u003eAICNRGO\u003c/h1\u003e\u003c/p\u003e","key_press":null,"trial_type":"html-keyboard-response","trial_index":17,"time_elapsed":136003,"internal_node_id":"0.0-5.4-0.4","responseType":"finish","participantID":"xxlw1mhz79ngxyzxkvaueq5x7ua38fv1","conditionNumber":"expected"},{"rt":2648,"responses":"{\"Q0\":0}","trial_type":"survey-likert","trial_index":18,"time_elapsed":138653,"internal_node_id":"0.0-5.4-1.4","responseType":"finish","participantID":"xxlw1mhz79ngxyzxkvaueq5x7ua38fv1","conditionNumber":"expected"},{"rt":null,"stimulus":"\u003cp\u003eNow we will show you another configuration of the anagram\u003c/p\u003e","key_press":null,"trial_type":"html-keyboard-response","trial_index":19,"time_elapsed":144658,"internal_node_id":"0.0-5.4-2.4","responseType":"finish","participantID":"xxlw1mhz79ngxyzxkvaueq5x7ua38fv1","conditionNumber":"expected"},{"rt":null,"stimulus":"\u003cp\u003e\u003ch1\u003eGICRONA\u003c/h1\u003e\u003c/p\u003e","key_press":null,"trial_type":"html-keyboard-response","trial_index":20,"time_elapsed":148663,"internal_node_id":"0.0-5.5-0.5","responseType":"finish","participantID":"xxlw1mhz79ngxyzxkvaueq5x7ua38fv1","conditionNumber":"expected"},{"rt":2150,"responses":"{\"Q0\":0}","trial_type":"survey-likert","trial_index":21,"time_elapsed":150816,"internal_node_id":"0.0-5.5-1.5","responseType":"finish","participantID":"xxlw1mhz79ngxyzxkvaueq5x7ua38fv1","conditionNumber":"expected"},{"rt":null,"stimulus":"\u003cp\u003eNow we will show you another configuration of the anagram\u003c/p\u003e","key_press":null,"trial_type":"html-keyboard-response","trial_index":22,"time_elapsed":156821,"internal_node_id":"0.0-5.5-2.5","responseType":"finish","participantID":"xxlw1mhz79ngxyzxkvaueq5x7ua38fv1","conditionNumber":"expected"},{"rt":null,"stimulus":"\u003cp\u003e\u003ch1\u003eNICGARO\u003c/h1\u003e\u003c/p\u003e","key_press":null,"trial_type":"html-keyboard-response","trial_index":23,"time_elapsed":160822,"internal_node_id":"0.0-5.6-0.6","responseType":"finish","participantID":"xxlw1mhz79ngxyzxkvaueq5x7ua38fv1","conditionNumber":"expected"},{"rt":2754,"responses":"{\"Q0\":0}","trial_type":"survey-likert","trial_index":24,"time_elapsed":163579,"internal_node_id":"0.0-5.6-1.6","responseType":"finish","participantID":"xxlw1mhz79ngxyzxkvaueq5x7ua38fv1","conditionNumber":"expected"},{"rt":null,"stimulus":"\u003cp\u003eWe will now show you a much \u003cb\u003eeasier\u003c/b\u003e configuration of this anagram\u003c/p\u003e","key_press":null,"trial_type":"html-keyboard-response","trial_index":25,"time_elapsed":169582,"internal_node_id":"0.0-5.6-2.6","responseType":"finish","participantID":"xxlw1mhz79ngxyzxkvaueq5x7ua38fv1","conditionNumber":"expected"},{"rt":null,"stimulus":"\u003cp\u003e\u003ch1\u003eORAGNIC\u003c/h1\u003e\u003c/p\u003e","key_press":null,"trial_type":"html-keyboard-response","trial_index":26,"time_elapsed":173582,"internal_node_id":"0.0-5.7-0.7","responseType":"finish","participantID":"xxlw1mhz79ngxyzxkvaueq5x7ua38fv1","conditionNumber":"expected"},{"rt":3004,"responses":"{\"Q0\":9}","trial_type":"survey-likert","trial_index":27,"time_elapsed":176589,"internal_node_id":"0.0-5.7-1.7","responseType":"finish","participantID":"xxlw1mhz79ngxyzxkvaueq5x7ua38fv1","conditionNumber":"expected"},{"rt":null,"stimulus":"\u003cp\u003eNow we will show you another configuration of the anagram\u003c/p\u003e","key_press":null,"trial_type":"html-keyboard-response","trial_index":28,"time_elapsed":176594,"internal_node_id":"0.0-5.7-2.7","responseType":"finish","participantID":"xxlw1mhz79ngxyzxkvaueq5x7ua38fv1","conditionNumber":"expected"},{"rt":9988,"responses":"{\"Q0\":6}","trial_type":"survey-likert","trial_index":29,"time_elapsed":186585,"internal_node_id":"0.0-6.0","responseType":"finish","participantID":"xxlw1mhz79ngxyzxkvaueq5x7ua38fv1","conditionNumber":"expected"},{"rt":9809,"stimulus":"\u003ch1 id=\"instructions\"\u003eInstructions\u003c/h1\u003e\n\u003cp\u003eThank you for your attention so far. Now, you will be presented with the second anagram which you have to solve. \u003c/p\u003e\n\u003cp\u003eWe will again present the anagram to you in \u003cstrong\u003eseven\u003c/strong\u003e different configurations. If you have not figured the answer to the anagram by then, then at the \u003cstrong\u003eeighth\u003c/strong\u003e time, we will show a much \u003cstrong\u003eeasier\u003c/strong\u003e configuration of that anagram to you. \u003c/p\u003e\n\u003cp\u003ePlease press the \u003cstrong\u003e'g' key\u003c/strong\u003e to continue once you understand.\u003c/p\u003e","key_press":71,"trial_type":"html-keyboard-response","trial_index":30,"time_elapsed":196397,"internal_node_id":"0.0-7.0","responseType":"finish","participantID":"xxlw1mhz79ngxyzxkvaueq5x7ua38fv1","conditionNumber":"expected"},{"rt":5193,"responses":"{\"Q0\":\"7 configurations\"}","trial_type":"survey-multi-choice","trial_index":31,"time_elapsed":201595,"internal_node_id":"0.0-8.0","responseType":"finish","participantID":"xxlw1mhz79ngxyzxkvaueq5x7ua38fv1","conditionNumber":"expected"},{"rt":null,"stimulus":"\u003cp\u003e\u003ch1\u003eHNTYUGA\u003c/h1\u003e\u003c/p\u003e","key_press":null,"trial_type":"html-keyboard-response","trial_index":32,"time_elapsed":205597,"internal_node_id":"0.0-9.0-0.0","responseType":"finish","participantID":"xxlw1mhz79ngxyzxkvaueq5x7ua38fv1","conditionNumber":"expected"},{"rt":2168,"responses":"{\"Q0\":0}","trial_type":"survey-likert","trial_index":33,"time_elapsed":207768,"internal_node_id":"0.0-9.0-1.0","responseType":"finish","participantID":"xxlw1mhz79ngxyzxkvaueq5x7ua38fv1","conditionNumber":"expected"},{"rt":null,"stimulus":"\u003cp\u003eNow we will show you another configuration of the anagram\u003c/p\u003e","key_press":null,"trial_type":"html-keyboard-response","trial_index":34,"time_elapsed":213772,"internal_node_id":"0.0-9.0-2.0","responseType":"finish","participantID":"xxlw1mhz79ngxyzxkvaueq5x7ua38fv1","conditionNumber":"expected"},{"rt":null,"stimulus":"\u003cp\u003e\u003ch1\u003eUHNGYAT\u003c/h1\u003e\u003c/p\u003e","key_press":null,"trial_type":"html-keyboard-response","trial_index":35,"time_elapsed":217775,"internal_node_id":"0.0-9.1-0.1","responseType":"finish","participantID":"xxlw1mhz79ngxyzxkvaueq5x7ua38fv1","conditionNumber":"expected"},{"rt":2067,"responses":"{\"Q0\":0}","trial_type":"survey-likert","trial_index":36,"time_elapsed":219845,"internal_node_id":"0.0-9.1-1.1","responseType":"finish","participantID":"xxlw1mhz79ngxyzxkvaueq5x7ua38fv1","conditionNumber":"expected"},{"rt":null,"stimulus":"\u003cp\u003eNow we will show you another configuration of the anagram\u003c/p\u003e","key_press":null,"trial_type":"html-keyboard-response","trial_index":37,"time_elapsed":225848,"internal_node_id":"0.0-9.1-2.1","responseType":"finish","participantID":"xxlw1mhz79ngxyzxkvaueq5x7ua38fv1","conditionNumber":"expected"},{"rt":null,"stimulus":"\u003cp\u003e\u003ch1\u003eYHANUTG\u003c/h1\u003e\u003c/p\u003e","key_press":null,"trial_type":"html-keyboard-response","trial_index":38,"time_elapsed":229851,"internal_node_id":"0.0-9.2-0.2","responseType":"finish","participantID":"xxlw1mhz79ngxyzxkvaueq5x7ua38fv1","conditionNumber":"expected"},{"rt":2059,"responses":"{\"Q0\":0}","trial_type":"survey-likert","trial_index":39,"time_elapsed":231913,"internal_node_id":"0.0-9.2-1.2","responseType":"finish","participantID":"xxlw1mhz79ngxyzxkvaueq5x7ua38fv1","conditionNumber":"expected"},{"rt":null,"stimulus":"\u003cp\u003eNow we will show you another configuration of the anagram\u003c/p\u003e","key_press":null,"trial_type":"html-keyboard-response","trial_index":40,"time_elapsed":237916,"internal_node_id":"0.0-9.2-2.2","responseType":"finish","participantID":"xxlw1mhz79ngxyzxkvaueq5x7ua38fv1","conditionNumber":"expected"},{"rt":null,"stimulus":"\u003cp\u003e\u003ch1\u003eATGNYHU\u003c/h1\u003e\u003c/p\u003e","key_press":null,"trial_type":"html-keyboard-response","trial_index":41,"time_elapsed":241917,"internal_node_id":"0.0-9.3-0.3","responseType":"finish","participantID":"xxlw1mhz79ngxyzxkvaueq5x7ua38fv1","conditionNumber":"expected"},{"rt":1822,"responses":"{\"Q0\":0}","trial_type":"survey-likert","trial_index":42,"time_elapsed":243742,"internal_node_id":"0.0-9.3-1.3","responseType":"finish","participantID":"xxlw1mhz79ngxyzxkvaueq5x7ua38fv1","conditionNumber":"expected"},{"rt":null,"stimulus":"\u003cp\u003eNow we will show you another configuration of the anagram\u003c/p\u003e","key_press":null,"trial_type":"html-keyboard-response","trial_index":43,"time_elapsed":249745,"internal_node_id":"0.0-9.3-2.3","responseType":"finish","participantID":"xxlw1mhz79ngxyzxkvaueq5x7ua38fv1","conditionNumber":"expected"},{"rt":null,"stimulus":"\u003cp\u003e\u003ch1\u003eGANYTHU\u003c/h1\u003e\u003c/p\u003e","key_press":null,"trial_type":"html-keyboard-response","trial_index":44,"time_elapsed":253747,"internal_node_id":"0.0-9.4-0.4","responseType":"finish","participantID":"xxlw1mhz79ngxyzxkvaueq5x7ua38fv1","conditionNumber":"expected"},{"rt":1754,"responses":"{\"Q0\":0}","trial_type":"survey-likert","trial_index":45,"time_elapsed":255504,"internal_node_id":"0.0-9.4-1.4","responseType":"finish","participantID":"xxlw1mhz79ngxyzxkvaueq5x7ua38fv1","conditionNumber":"expected"},{"rt":null,"stimulus":"\u003cp\u003eNow we will show you another configuration of the anagram\u003c/p\u003e","key_press":null,"trial_type":"html-keyboard-response","trial_index":46,"time_elapsed":261509,"internal_node_id":"0.0-9.4-2.4","responseType":"finish","participantID":"xxlw1mhz79ngxyzxkvaueq5x7ua38fv1","conditionNumber":"expected"},{"rt":null,"stimulus":"\u003cp\u003e\u003ch1\u003eTHANYGU\u003c/h1\u003e\u003c/p\u003e","key_press":null,"trial_type":"html-keyboard-response","trial_index":47,"time_elapsed":265514,"internal_node_id":"0.0-9.5-0.5","responseType":"finish","participantID":"xxlw1mhz79ngxyzxkvaueq5x7ua38fv1","conditionNumber":"expected"},{"rt":1982,"responses":"{\"Q0\":0}","trial_type":"survey-likert","trial_index":48,"time_elapsed":267499,"internal_node_id":"0.0-9.5-1.5","responseType":"finish","participantID":"xxlw1mhz79ngxyzxkvaueq5x7ua38fv1","conditionNumber":"expected"},{"rt":null,"stimulus":"\u003cp\u003eNow we will show you another configuration of the anagram\u003c/p\u003e","key_press":null,"trial_type":"html-keyboard-response","trial_index":49,"time_elapsed":273503,"internal_node_id":"0.0-9.5-2.5","responseType":"finish","participantID":"xxlw1mhz79ngxyzxkvaueq5x7ua38fv1","conditionNumber":"expected"},{"rt":null,"stimulus":"\u003cp\u003e\u003ch1\u003eAGNYUTH\u003c/h1\u003e\u003c/p\u003e","key_press":null,"trial_type":"html-keyboard-response","trial_index":50,"time_elapsed":277505,"internal_node_id":"0.0-9.6-0.6","responseType":"finish","participantID":"xxlw1mhz79ngxyzxkvaueq5x7ua38fv1","conditionNumber":"expected"},{"rt":2147,"responses":"{\"Q0\":0}","trial_type":"survey-likert","trial_index":51,"time_elapsed":279654,"internal_node_id":"0.0-9.6-1.6","responseType":"finish","participantID":"xxlw1mhz79ngxyzxkvaueq5x7ua38fv1","conditionNumber":"expected"},{"rt":null,"stimulus":"\u003cp\u003eWe will now show you a much \u003cb\u003eeasier\u003c/b\u003e configuration of this anagram\u003c/p\u003e","key_press":null,"trial_type":"html-keyboard-response","trial_index":52,"time_elapsed":285659,"internal_node_id":"0.0-9.6-2.6","responseType":"finish","participantID":"xxlw1mhz79ngxyzxkvaueq5x7ua38fv1","conditionNumber":"expected"},{"rt":null,"stimulus":"\u003cp\u003e\u003ch1\u003eNAUHGTY\u003c/h1\u003e\u003c/p\u003e","key_press":null,"trial_type":"html-keyboard-response","trial_index":53,"time_elapsed":289662,"internal_node_id":"0.0-9.7-0.7","responseType":"finish","participantID":"xxlw1mhz79ngxyzxkvaueq5x7ua38fv1","conditionNumber":"expected"},{"rt":2704,"responses":"{\"Q0\":9}","trial_type":"survey-likert","trial_index":54,"time_elapsed":292369,"internal_node_id":"0.0-9.7-1.7","responseType":"finish","participantID":"xxlw1mhz79ngxyzxkvaueq5x7ua38fv1","conditionNumber":"expected"},{"rt":null,"stimulus":"\u003cp\u003eNow we will show you another configuration of the anagram\u003c/p\u003e","key_press":null,"trial_type":"html-keyboard-response","trial_index":55,"time_elapsed":292373,"internal_node_id":"0.0-9.7-2.7","responseType":"finish","participantID":"xxlw1mhz79ngxyzxkvaueq5x7ua38fv1","conditionNumber":"expected"},{"rt":5001,"responses":"{\"Q0\":6}","trial_type":"survey-likert","trial_index":56,"time_elapsed":297377,"internal_node_id":"0.0-10.0","responseType":"finish","participantID":"xxlw1mhz79ngxyzxkvaueq5x7ua38fv1","conditionNumber":"expected"}],"__v":0}
{"_id":{"$oid":"5d6dd3f328988500046dc72e"},"data":[{"rt":3566,"responses":"{\"Q0\":\" I consent to participate \"}","trial_type":"survey-multi-choice","trial_index":0,"time_elapsed":3570,"internal_node_id":"0.0-0.0","responseType":"finish","participantID":"mnanbgz19ezd000b0mecj3q1wk3gc1pd","conditionNumber":"expected"},{"trial_type":"call-function","trial_index":1,"time_elapsed":3573,"internal_node_id":"0.0-1.0","responseType":"finish","participantID":"mnanbgz19ezd000b0mecj3q1wk3gc1pd","conditionNumber":"expected"},{"rt":8821,"stimulus":"\u003ch1 id=\"welcome\"\u003eWelcome\u003c/h1\u003e\n\u003cp\u003eWelcome to the Experiment! In this experiment, we will give you two \u003cem\u003eanagrams\u003c/em\u003e to solve. An \u003cem\u003eanagram\u003c/em\u003e is simply a word or phrase formed by rearranging the letters of another word or phrase. For example:\u003c/p\u003e\n\u003cul\u003e\n\u003cli\u003e\u003cstrong\u003ePOKER\u003c/strong\u003e is an anagram of \u003cstrong\u003ePKOER\u003c/strong\u003e\u003c/li\u003e\n\u003cli\u003e\u003cstrong\u003ePIKE\u003c/strong\u003e is an anagram of \u003cstrong\u003eKEPI\u003c/strong\u003e\u003c/li\u003e\n\u003c/ul\u003e\n\u003cp\u003eWe kindly request for your full attention for the experiment and ask you to refrain from using Google or other search engines. \u003c/p\u003e\n\u003cp\u003ePlease press the \u003cstrong\u003e'n' key\u003c/strong\u003e to continue once you understand.\u003c/p\u003e","key_press":78,"trial_type":"html-keyboard-response","trial_index":2,"time_elapsed":12396,"internal_node_id":"0.0-2.0","responseType":"finish","participantID":"mnanbgz19ezd000b0mecj3q1wk3gc1pd","conditionNumber":"expected"},{"rt":16550,"stimulus":"\u003ch1 id=\"instructions\"\u003eInstructions\u003c/h1\u003e\n\u003cp\u003eWhen you click next, you will be presented with an anagram that will be displayed for 4 seconds. Following that, the \u003cem\u003esame\u003c/em\u003e anagram will be presented to you again in a \u003cem\u003edifferent\u003c/em\u003e configuration for 4 seconds. \u003c/p\u003e\n\u003cp\u003eIn total, we will present the anagram to you in \u003cstrong\u003eseven\u003c/strong\u003e different configurations. If you have not figured the answer to the anagram by then, then at the \u003cstrong\u003eeighth\u003c/strong\u003e time, we will show a much \u003cstrong\u003eeasier\u003c/strong\u003e configuration of that anagram to you. \u003c/p\u003e\n\u003cp\u003eAs an example, you may be presented with random configurations such as: \u003cstrong\u003eONLEM\u003c/strong\u003e, \u003cstrong\u003eMOELN\u003c/strong\u003e, \u003cstrong\u003eNMEOL\u003c/strong\u003e, and finally the easier configuration, \u003cstrong\u003eLMEON\u003c/strong\u003e. Here, these configurations come from the same anagram, LEMON and your goal was figuring out the underlying anagram. \u003c/p\u003e\n\u003cp\u003ePlease press the \u003cstrong\u003e'm' key\u003c/strong\u003e to continue once you understand.\u003c/p\u003e","key_press":77,"trial_type":"html-keyboard-response","trial_index":3,"time_elapsed":28947,"internal_node_id":"0.0-3.0","responseType":"finish","participantID":"mnanbgz19ezd000b0mecj3q1wk3gc1pd","conditionNumber":"expected"},{"rt":3143,"stimulus":"\u003ch1 id=\"instructions\"\u003eInstructions\u003c/h1\u003e\n\u003cp\u003eNow, we will present you the first anagram which you have to solve. We will present the anagram to you in \u003cstrong\u003eseven\u003c/strong\u003e different configurations. If you have not figured the answer to the anagram by then, then we will show a much \u003cstrong\u003eeasier\u003c/strong\u003e configuration to you in the \u003cstrong\u003eeighth\u003c/strong\u003e iteration. \u003c/p\u003e\n\u003cp\u003ePlease press the \u003cstrong\u003e'b' key\u003c/strong\u003e to continue.\u003c/p\u003e","key_press":66,"trial_type":"html-keyboard-response","trial_index":4,"time_elapsed":32090,"internal_node_id":"0.0-4.0","responseType":"finish","participantID":"mnanbgz19ezd000b0mecj3q1wk3gc1pd","conditionNumber":"expected"},{"rt":null,"stimulus":"\u003cp\u003e\u003ch1\u003eIACGNOR\u003c/h1\u003e\u003c/p\u003e","key_press":null,"trial_type":"html-keyboard-response","trial_index":5,"time_elapsed":36091,"internal_node_id":"0.0-5.0-0.0","responseType":"finish","participantID":"mnanbgz19ezd000b0mecj3q1wk3gc1pd","conditionNumber":"expected"},{"rt":3633,"responses":"{\"Q0\":0}","trial_type":"survey-likert","trial_index":6,"time_elapsed":39725,"internal_node_id":"0.0-5.0-1.0","responseType":"finish","participantID":"mnanbgz19ezd000b0mecj3q1wk3gc1pd","conditionNumber":"expected"},{"rt":null,"stimulus":"\u003cp\u003eNow we will show you another configuration of the anagram\u003c/p\u003e","key_press":null,"trial_type":"html-keyboard-response","trial_index":7,"time_elapsed":45727,"internal_node_id":"0.0-5.0-2.0","responseType":"finish","participantID":"mnanbgz19ezd000b0mecj3q1wk3gc1pd","conditionNumber":"expected"},{"rt":null,"stimulus":"\u003cp\u003e\u003ch1\u003eRAIOCNG\u003c/h1\u003e\u003c/p\u003e","key_press":null,"trial_type":"html-keyboard-response","trial_index":8,"time_elapsed":49730,"internal_node_id":"0.0-5.1-0.1","responseType":"finish","participantID":"mnanbgz19ezd000b0mecj3q1wk3gc1pd","conditionNumber":"expected"},{"rt":4083,"responses":"{\"Q0\":2}","trial_type":"survey-likert","trial_index":9,"time_elapsed":53813,"internal_node_id":"0.0-5.1-1.1","responseType":"finish","participantID":"mnanbgz19ezd000b0mecj3q1wk3gc1pd","conditionNumber":"expected"},{"rt":null,"stimulus":"\u003cp\u003eNow we will show you another configuration of the anagram\u003c/p\u003e","key_press":null,"trial_type":"html-keyboard-response","trial_index":10,"time_elapsed":59816,"internal_node_id":"0.0-5.1-2.1","responseType":"finish","participantID":"mnanbgz19ezd000b0mecj3q1wk3gc1pd","conditionNumber":"expected"},{"rt":null,"stimulus":"\u003cp\u003e\u003ch1\u003eNCARGOI\u003c/h1\u003e\u003c/p\u003e","key_press":null,"trial_type":"html-keyboard-response","trial_index":11,"time_elapsed":63817,"internal_node_id":"0.0-5.2-0.2","responseType":"finish","participantID":"mnanbgz19ezd000b0mecj3q1wk3gc1pd","conditionNumber":"expected"},{"rt":6543,"responses":"{\"Q0\":2}","trial_type":"survey-likert","trial_index":12,"time_elapsed":70361,"internal_node_id":"0.0-5.2-1.2","responseType":"finish","participantID":"mnanbgz19ezd000b0mecj3q1wk3gc1pd","conditionNumber":"expected"},{"rt":null,"stimulus":"\u003cp\u003eNow we will show you another configuration of the anagram\u003c/p\u003e","key_press":null,"trial_type":"html-keyboard-response","trial_index":13,"time_elapsed":76363,"internal_node_id":"0.0-5.2-2.2","responseType":"finish","participantID":"mnanbgz19ezd000b0mecj3q1wk3gc1pd","conditionNumber":"expected"},{"rt":null,"stimulus":"\u003cp\u003e\u003ch1\u003eCGOAIRN\u003c/h1\u003e\u003c/p\u003e","key_press":null,"trial_type":"html-keyboard-response","trial_index":14,"time_elapsed":80364,"internal_node_id":"0.0-5.3-0.3","responseType":"finish","participantID":"mnanbgz19ezd000b0mecj3q1wk3gc1pd","conditionNumber":"expected"},{"rt":4478,"responses":"{\"Q0\":2}","trial_type":"survey-likert","trial_index":15,"time_elapsed":84842,"internal_node_id":"0.0-5.3-1.3","responseType":"finish","participantID":"mnanbgz19ezd000b0mecj3q1wk3gc1pd","conditionNumber":"expected"},{"rt":null,"stimulus":"\u003cp\u003eNow we will show you another configuration of the anagram\u003c/p\u003e","key_press":null,"trial_type":"html-keyboard-response","trial_index":16,"time_elapsed":90843,"internal_node_id":"0.0-5.3-2.3","responseType":"finish","participantID":"mnanbgz19ezd000b0mecj3q1wk3gc1pd","conditionNumber":"expected"},{"rt":null,"stimulus":"\u003cp\u003e\u003ch1\u003eAICNRGO\u003c/h1\u003e\u003c/p\u003e","key_press":null,"trial_type":"html-keyboard-response","trial_index":17,"time_elapsed":94845,"internal_node_id":"0.0-5.4-0.4","responseType":"finish","participantID":"mnanbgz19ezd000b0mecj3q1wk3gc1pd","conditionNumber":"expected"},{"rt":11947,"responses":"{\"Q0\":2}","trial_type":"survey-likert","trial_index":18,"time_elapsed":106792,"internal_node_id":"0.0-5.4-1.4","responseType":"finish","participantID":"mnanbgz19ezd000b0mecj3q1wk3gc1pd","conditionNumber":"expected"},{"rt":null,"stimulus":"\u003cp\u003eNow we will show you another configuration of the anagram\u003c/p\u003e","key_press":null,"trial_type":"html-keyboard-response","trial_index":19,"time_elapsed":112793,"internal_node_id":"0.0-5.4-2.4","responseType":"finish","participantID":"mnanbgz19ezd000b0mecj3q1wk3gc1pd","conditionNumber":"expected"},{"rt":null,"stimulus":"\u003cp\u003e\u003ch1\u003eGICRONA\u003c/h1\u003e\u003c/p\u003e","key_press":null,"trial_type":"html-keyboard-response","trial_index":20,"time_elapsed":116795,"internal_node_id":"0.0-5.5-0.5","responseType":"finish","participantID":"mnanbgz19ezd000b0mecj3q1wk3gc1pd","conditionNumber":"expected"},{"rt":8939,"responses":"{\"Q0\":9}","trial_type":"survey-likert","trial_index":21,"time_elapsed":125734,"internal_node_id":"0.0-5.5-1.5","responseType":"finish","participantID":"mnanbgz19ezd000b0mecj3q1wk3gc1pd","conditionNumber":"expected"},{"rt":null,"stimulus":"\u003cp\u003eNow we will show you another configuration of the anagram\u003c/p\u003e","key_press":null,"trial_type":"html-keyboard-response","trial_index":22,"time_elapsed":131736,"internal_node_id":"0.0-5.5-2.5","responseType":"finish","participantID":"mnanbgz19ezd000b0mecj3q1wk3gc1pd","conditionNumber":"expected"},{"rt":null,"stimulus":"\u003cp\u003e\u003ch1\u003eNICGARO\u003c/h1\u003e\u003c/p\u003e","key_press":null,"trial_type":"html-keyboard-response","trial_index":23,"time_elapsed":135738,"internal_node_id":"0.0-5.6-0.6","responseType":"finish","participantID":"mnanbgz19ezd000b0mecj3q1wk3gc1pd","conditionNumber":"expected"},{"rt":1615,"responses":"{\"Q0\":9}","trial_type":"survey-likert","trial_index":24,"time_elapsed":137353,"internal_node_id":"0.0-5.6-1.6","responseType":"finish","participantID":"mnanbgz19ezd000b0mecj3q1wk3gc1pd","conditionNumber":"expected"},{"rt":null,"stimulus":"\u003cp\u003eWe will now show you a much \u003cb\u003eeasier\u003c/b\u003e configuration of this anagram\u003c/p\u003e","key_press":null,"trial_type":"html-keyboard-response","trial_index":25,"time_elapsed":143355,"internal_node_id":"0.0-5.6-2.6","responseType":"finish","participantID":"mnanbgz19ezd000b0mecj3q1wk3gc1pd","conditionNumber":"expected"},{"rt":null,"stimulus":"\u003cp\u003e\u003ch1\u003eORAGNIC\u003c/h1\u003e\u003c/p\u003e","key_press":null,"trial_type":"html-keyboard-response","trial_index":26,"time_elapsed":147357,"internal_node_id":"0.0-5.7-0.7","responseType":"finish","participantID":"mnanbgz19ezd000b0mecj3q1wk3gc1pd","conditionNumber":"expected"},{"rt":2634,"responses":"{\"Q0\":9}","trial_type":"survey-likert","trial_index":27,"time_elapsed":149991,"internal_node_id":"0.0-5.7-1.7","responseType":"finish","participantID":"mnanbgz19ezd000b0mecj3q1wk3gc1pd","conditionNumber":"expected"},{"rt":null,"stimulus":"\u003cp\u003eNow we will show you another configuration of the anagram\u003c/p\u003e","key_press":null,"trial_type":"html-keyboard-response","trial_index":28,"time_elapsed":149993,"internal_node_id":"0.0-5.7-2.7","responseType":"finish","participantID":"mnanbgz19ezd000b0mecj3q1wk3gc1pd","conditionNumber":"expected"},{"rt":6699,"responses":"{\"Q0\":6}","trial_type":"survey-likert","trial_index":29,"time_elapsed":156694,"internal_node_id":"0.0-6.0","responseType":"finish","participantID":"mnanbgz19ezd000b0mecj3q1wk3gc1pd","conditionNumber":"expected"},{"rt":14884,"stimulus":"\u003ch1 id=\"instructions\"\u003eInstructions\u003c/h1\u003e\n\u003cp\u003eThank you for your attention so far. Now, you will be presented with the second anagram which you have to solve. \u003c/p\u003e\n\u003cp\u003eWe will again present the anagram to you in \u003cstrong\u003eseven\u003c/strong\u003e different configurations. If you have not figured the answer to the anagram by then, then at the \u003cstrong\u003eeighth\u003c/strong\u003e time, we will show a much \u003cstrong\u003eeasier\u003c/strong\u003e configuration of that anagram to you. \u003c/p\u003e\n\u003cp\u003ePlease press the \u003cstrong\u003e'g' key\u003c/strong\u003e to continue once you understand.\u003c/p\u003e","key_press":71,"trial_type":"html-keyboard-response","trial_index":30,"time_elapsed":171579,"internal_node_id":"0.0-7.0","responseType":"finish","participantID":"mnanbgz19ezd000b0mecj3q1wk3gc1pd","conditionNumber":"expected"},{"rt":5078,"responses":"{\"Q0\":\"7 configurations\"}","trial_type":"survey-multi-choice","trial_index":31,"time_elapsed":176658,"internal_node_id":"0.0-8.0","responseType":"finish","participantID":"mnanbgz19ezd000b0mecj3q1wk3gc1pd","conditionNumber":"expected"},{"rt":null,"stimulus":"\u003cp\u003e\u003ch1\u003eHNTYUGA\u003c/h1\u003e\u003c/p\u003e","key_press":null,"trial_type":"html-keyboard-response","trial_index":32,"time_elapsed":180659,"internal_node_id":"0.0-9.0-0.0","responseType":"finish","participantID":"mnanbgz19ezd000b0mecj3q1wk3gc1pd","conditionNumber":"expected"},{"rt":1982,"responses":"{\"Q0\":0}","trial_type":"survey-likert","trial_index":33,"time_elapsed":182643,"internal_node_id":"0.0-9.0-1.0","responseType":"finish","participantID":"mnanbgz19ezd000b0mecj3q1wk3gc1pd","conditionNumber":"expected"},{"rt":null,"stimulus":"\u003cp\u003eNow we will show you another configuration of the anagram\u003c/p\u003e","key_press":null,"trial_type":"html-keyboard-response","trial_index":34,"time_elapsed":188646,"internal_node_id":"0.0-9.0-2.0","responseType":"finish","participantID":"mnanbgz19ezd000b0mecj3q1wk3gc1pd","conditionNumber":"expected"},{"rt":null,"stimulus":"\u003cp\u003e\u003ch1\u003eUHNGYAT\u003c/h1\u003e\u003c/p\u003e","key_press":null,"trial_type":"html-keyboard-response","trial_index":35,"time_elapsed":192647,"internal_node_id":"0.0-9.1-0.1","responseType":"finish","participantID":"mnanbgz19ezd000b0mecj3q1wk3gc1pd","conditionNumber":"expected"},{"rt":4694,"responses":"{\"Q0\":0}","trial_type":"survey-likert","trial_index":36,"time_elapsed":197342,"internal_node_id":"0.0-9.1-1.1","responseType":"finish","participantID":"mnanbgz19ezd000b0mecj3q1wk3gc1pd","conditionNumber":"expected"},{"rt":null,"stimulus":"\u003cp\u003eNow we will show you another configuration of the anagram\u003c/p\u003e","key_press":null,"trial_type":"html-keyboard-response","trial_index":37,"time_elapsed":203343,"internal_node_id":"0.0-9.1-2.1","responseType":"finish","participantID":"mnanbgz19ezd000b0mecj3q1wk3gc1pd","conditionNumber":"expected"},{"rt":null,"stimulus":"\u003cp\u003e\u003ch1\u003eYHANUTG\u003c/h1\u003e\u003c/p\u003e","key_press":null,"trial_type":"html-keyboard-response","trial_index":38,"time_elapsed":207345,"internal_node_id":"0.0-9.2-0.2","responseType":"finish","participantID":"mnanbgz19ezd000b0mecj3q1wk3gc1pd","conditionNumber":"expected"},{"rt":1563,"responses":"{\"Q0\":0}","trial_type":"survey-likert","trial_index":39,"time_elapsed":208910,"internal_node_id":"0.0-9.2-1.2","responseType":"finish","participantID":"mnanbgz19ezd000b0mecj3q1wk3gc1pd","conditionNumber":"expected"},{"rt":null,"stimulus":"\u003cp\u003eNow we will show you another configuration of the anagram\u003c/p\u003e","key_press":null,"trial_type":"html-keyboard-response","trial_index":40,"time_elapsed":214912,"internal_node_id":"0.0-9.2-2.2","responseType":"finish","participantID":"mnanbgz19ezd000b0mecj3q1wk3gc1pd","conditionNumber":"expected"},{"rt":null,"stimulus":"\u003cp\u003e\u003ch1\u003eATGNYHU\u003c/h1\u003e\u003c/p\u003e","key_press":null,"trial_type":"html-keyboard-response","trial_index":41,"time_elapsed":218914,"internal_node_id":"0.0-9.3-0.3","responseType":"finish","participantID":"mnanbgz19ezd000b0mecj3q1wk3gc1pd","conditionNumber":"expected"},{"rt":3145,"responses":"{\"Q0\":0}","trial_type":"survey-likert","trial_index":42,"time_elapsed":222060,"internal_node_id":"0.0-9.3-1.3","responseType":"finish","participantID":"mnanbgz19ezd000b0mecj3q1wk3gc1pd","conditionNumber":"expected"},{"rt":null,"stimulus":"\u003cp\u003eNow we will show you another configuration of the anagram\u003c/p\u003e","key_press":null,"trial_type":"html-keyboard-response","trial_index":43,"time_elapsed":228063,"internal_node_id":"0.0-9.3-2.3","responseType":"finish","participantID":"mnanbgz19ezd000b0mecj3q1wk3gc1pd","conditionNumber":"expected"},{"rt":null,"stimulus":"\u003cp\u003e\u003ch1\u003eGANYTHU\u003c/h1\u003e\u003c/p\u003e","key_press":null,"trial_type":"html-keyboard-response","trial_index":44,"time_elapsed":232064,"internal_node_id":"0.0-9.4-0.4","responseType":"finish","participantID":"mnanbgz19ezd000b0mecj3q1wk3gc1pd","conditionNumber":"expected"},{"rt":1917,"responses":"{\"Q0\":0}","trial_type":"survey-likert","trial_index":45,"time_elapsed":233981,"internal_node_id":"0.0-9.4-1.4","responseType":"finish","participantID":"mnanbgz19ezd000b0mecj3q1wk3gc1pd","conditionNumber":"expected"},{"rt":null,"stimulus":"\u003cp\u003eNow we will show you another configuration of the anagram\u003c/p\u003e","key_press":null,"trial_type":"html-keyboard-response","trial_index":46,"time_elapsed":239983,"internal_node_id":"0.0-9.4-2.4","responseType":"finish","participantID":"mnanbgz19ezd000b0mecj3q1wk3gc1pd","conditionNumber":"expected"},{"rt":null,"stimulus":"\u003cp\u003e\u003ch1\u003eTHANYGU\u003c/h1\u003e\u003c/p\u003e","key_press":null,"trial_type":"html-keyboard-response","trial_index":47,"time_elapsed":243984,"internal_node_id":"0.0-9.5-0.5","responseType":"finish","participantID":"mnanbgz19ezd000b0mecj3q1wk3gc1pd","conditionNumber":"expected"},{"rt":3597,"responses":"{\"Q0\":9}","trial_type":"survey-likert","trial_index":48,"time_elapsed":247581,"internal_node_id":"0.0-9.5-1.5","responseType":"finish","participantID":"mnanbgz19ezd000b0mecj3q1wk3gc1pd","conditionNumber":"expected"},{"rt":null,"stimulus":"\u003cp\u003eNow we will show you another configuration of the anagram\u003c/p\u003e","key_press":null,"trial_type":"html-keyboard-response","trial_index":49,"time_elapsed":253583,"internal_node_id":"0.0-9.5-2.5","responseType":"finish","participantID":"mnanbgz19ezd000b0mecj3q1wk3gc1pd","conditionNumber":"expected"},{"rt":null,"stimulus":"\u003cp\u003e\u003ch1\u003eAGNYUTH\u003c/h1\u003e\u003c/p\u003e","key_press":null,"trial_type":"html-keyboard-response","trial_index":50,"time_elapsed":257585,"internal_node_id":"0.0-9.6-0.6","responseType":"finish","participantID":"mnanbgz19ezd000b0mecj3q1wk3gc1pd","conditionNumber":"expected"},{"rt":2284,"responses":"{\"Q0\":9}","trial_type":"survey-likert","trial_index":51,"time_elapsed":259870,"internal_node_id":"0.0-9.6-1.6","responseType":"finish","participantID":"mnanbgz19ezd000b0mecj3q1wk3gc1pd","conditionNumber":"expected"},{"rt":null,"stimulus":"\u003cp\u003eWe will now show you a much \u003cb\u003eeasier\u003c/b\u003e configuration of this anagram\u003c/p\u003e","key_press":null,"trial_type":"html-keyboard-response","trial_index":52,"time_elapsed":265872,"internal_node_id":"0.0-9.6-2.6","responseType":"finish","participantID":"mnanbgz19ezd000b0mecj3q1wk3gc1pd","conditionNumber":"expected"},{"rt":null,"stimulus":"\u003cp\u003e\u003ch1\u003eNAUHGTY\u003c/h1\u003e\u003c/p\u003e","key_press":null,"trial_type":"html-keyboard-response","trial_index":53,"time_elapsed":269873,"internal_node_id":"0.0-9.7-0.7","responseType":"finish","participantID":"mnanbgz19ezd000b0mecj3q1wk3gc1pd","conditionNumber":"expected"},{"rt":2810,"responses":"{\"Q0\":9}","trial_type":"survey-likert","trial_index":54,"time_elapsed":272685,"internal_node_id":"0.0-9.7-1.7","responseType":"finish","participantID":"mnanbgz19ezd000b0mecj3q1wk3gc1pd","conditionNumber":"expected"},{"rt":null,"stimulus":"\u003cp\u003eNow we will show you another configuration of the anagram\u003c/p\u003e","key_press":null,"trial_type":"html-keyboard-response","trial_index":55,"time_elapsed":272687,"internal_node_id":"0.0-9.7-2.7","responseType":"finish","participantID":"mnanbgz19ezd000b0mecj3q1wk3gc1pd","conditionNumber":"expected"},{"rt":3546,"responses":"{\"Q0\":6}","trial_type":"survey-likert","trial_index":56,"time_elapsed":276233,"internal_node_id":"0.0-10.0","responseType":"finish","participantID":"mnanbgz19ezd000b0mecj3q1wk3gc1pd","conditionNumber":"expected"}],"__v":0}
{"_id":{"$oid":"5d6dd3f528988500046dc72f"},"data":{"responseType":"start","participantID":"17gwbnmynmxz1ps1jhprtu3xjoj1mqlc","conditionNumber":"expected"},"__v":0}
{"_id":{"$oid":"5d6dd41c28988500046dc730"},"data":{"responseType":"start","participantID":"wb9d6jvp1njkb67jyl7t60nztb6lw8cc","conditionNumber":"unexpected"},"__v":0}
{"_id":{"$oid":"5d6dd42e28988500046dc731"},"data":{"responseType":"start","participantID":"pnrl7uhw28z3bvvcbxhzk7gfcyh0y2fe","conditionNumber":"expected"},"__v":0}
{"_id":{"$oid":"5d6dd44228988500046dc732"},"data":{"responseType":"start","participantID":"wz8b34j2xzcxbv48xnegocbbrke1aa54","conditionNumber":"unexpected"},"__v":0}
{"_id":{"$oid":"5d6dd45d28988500046dc733"},"data":{"responseType":"start","participantID":"yg3ogmm1l1u7vq5y9cpq7szzzd231hz9","conditionNumber":"unexpected"},"__v":0}
{"_id":{"$oid":"5d6dd47c28988500046dc734"},"data":{"responseType":"start","participantID":"te94llazwesvq0qkecg0b8hu3p76jee5","conditionNumber":"unexpected"},"__v":0}
{"_id":{"$oid":"5d6dd4a228988500046dc735"},"data":[{"rt":10466,"responses":"{\"Q0\":\" I consent to participate \"}","trial_type":"survey-multi-choice","trial_index":0,"time_elapsed":10471,"internal_node_id":"0.0-0.0","responseType":"finish","participantID":"5p9c48cfhhwf4qloo8lz0gc51le4qb3j","conditionNumber":"expected"},{"trial_type":"call-function","trial_index":1,"time_elapsed":10475,"internal_node_id":"0.0-1.0","responseType":"finish","participantID":"5p9c48cfhhwf4qloo8lz0gc51le4qb3j","conditionNumber":"expected"},{"rt":7683,"stimulus":"\u003ch1 id=\"welcome\"\u003eWelcome\u003c/h1\u003e\n\u003cp\u003eWelcome to the Experiment! In this experiment, we will give you two \u003cem\u003eanagrams\u003c/em\u003e to solve. An \u003cem\u003eanagram\u003c/em\u003e is simply a word or phrase formed by rearranging the letters of another word or phrase. For example:\u003c/p\u003e\n\u003cul\u003e\n\u003cli\u003e\u003cstrong\u003ePOKER\u003c/strong\u003e is an anagram of \u003cstrong\u003ePKOER\u003c/strong\u003e\u003c/li\u003e\n\u003cli\u003e\u003cstrong\u003ePIKE\u003c/strong\u003e is an anagram of \u003cstrong\u003eKEPI\u003c/strong\u003e\u003c/li\u003e\n\u003c/ul\u003e\n\u003cp\u003eWe kindly request for your full attention for the experiment and ask you to refrain from using Google or other search engines. \u003c/p\u003e\n\u003cp\u003ePlease press the \u003cstrong\u003e'n' key\u003c/strong\u003e to continue once you understand.\u003c/p\u003e","key_press":78,"trial_type":"html-keyboard-response","trial_index":2,"time_elapsed":18159,"internal_node_id":"0.0-2.0","responseType":"finish","participantID":"5p9c48cfhhwf4qloo8lz0gc51le4qb3j","conditionNumber":"expected"},{"rt":14765,"stimulus":"\u003ch1 id=\"instructions\"\u003eInstructions\u003c/h1\u003e\n\u003cp\u003eWhen you click next, you will be presented with an anagram that will be displayed for 4 seconds. Following that, the \u003cem\u003esame\u003c/em\u003e anagram will be presented to you again in a \u003cem\u003edifferent\u003c/em\u003e configuration for 4 seconds. \u003c/p\u003e\n\u003cp\u003eIn total, we will present the anagram to you in \u003cstrong\u003eseven\u003c/strong\u003e different configurations. If you have not figured the answer to the anagram by then, then at the \u003cstrong\u003eeighth\u003c/strong\u003e time, we will show a much \u003cstrong\u003eeasier\u003c/strong\u003e configuration of that anagram to you. \u003c/p\u003e\n\u003cp\u003eAs an example, you may be presented with random configurations such as: \u003cstrong\u003eONLEM\u003c/strong\u003e, \u003cstrong\u003eMOELN\u003c/strong\u003e, \u003cstrong\u003eNMEOL\u003c/strong\u003e, and finally the easier configuration, \u003cstrong\u003eLMEON\u003c/strong\u003e. Here, these configurations come from the same anagram, LEMON and your goal was figuring out the underlying anagram. \u003c/p\u003e\n\u003cp\u003ePlease press the \u003cstrong\u003e'm' key\u003c/strong\u003e to continue once you understand.\u003c/p\u003e","key_press":77,"trial_type":"html-keyboard-response","trial_index":3,"time_elapsed":32926,"internal_node_id":"0.0-3.0","responseType":"finish","participantID":"5p9c48cfhhwf4qloo8lz0gc51le4qb3j","conditionNumber":"expected"},{"rt":5319,"stimulus":"\u003ch1 id=\"instructions\"\u003eInstructions\u003c/h1\u003e\n\u003cp\u003eNow, we will present you the first anagram which you have to solve. We will present the anagram to you in \u003cstrong\u003eseven\u003c/strong\u003e different configurations. If you have not figured the answer to the anagram by then, then we will show a much \u003cstrong\u003eeasier\u003c/strong\u003e configuration to you in the \u003cstrong\u003eeighth\u003c/strong\u003e iteration. \u003c/p\u003e\n\u003cp\u003ePlease press the \u003cstrong\u003e'b' key\u003c/strong\u003e to continue.\u003c/p\u003e","key_press":66,"trial_type":"html-keyboard-response","trial_index":4,"time_elapsed":38245,"internal_node_id":"0.0-4.0","responseType":"finish","participantID":"5p9c48cfhhwf4qloo8lz0gc51le4qb3j","conditionNumber":"expected"},{"rt":null,"stimulus":"\u003cp\u003e\u003ch1\u003eIACGNOR\u003c/h1\u003e\u003c/p\u003e","key_press":null,"trial_type":"html-keyboard-response","trial_index":5,"time_elapsed":42248,"internal_node_id":"0.0-5.0-0.0","responseType":"finish","participantID":"5p9c48cfhhwf4qloo8lz0gc51le4qb3j","conditionNumber":"expected"},{"rt":3981,"responses":"{\"Q0\":9}","trial_type":"survey-likert","trial_index":6,"time_elapsed":46232,"internal_node_id":"0.0-5.0-1.0","responseType":"finish","participantID":"5p9c48cfhhwf4qloo8lz0gc51le4qb3j","conditionNumber":"expected"},{"rt":null,"stimulus":"\u003cp\u003eNow we will show you another configuration of the anagram\u003c/p\u003e","key_press":null,"trial_type":"html-keyboard-response","trial_index":7,"time_elapsed":52233,"internal_node_id":"0.0-5.0-2.0","responseType":"finish","participantID":"5p9c48cfhhwf4qloo8lz0gc51le4qb3j","conditionNumber":"expected"},{"rt":null,"stimulus":"\u003cp\u003e\u003ch1\u003eRAIOCNG\u003c/h1\u003e\u003c/p\u003e","key_press":null,"trial_type":"html-keyboard-response","trial_index":8,"time_elapsed":56235,"internal_node_id":"0.0-5.1-0.1","responseType":"finish","participantID":"5p9c48cfhhwf4qloo8lz0gc51le4qb3j","conditionNumber":"expected"},{"rt":3060,"responses":"{\"Q0\":9}","trial_type":"survey-likert","trial_index":9,"time_elapsed":59298,"internal_node_id":"0.0-5.1-1.1","responseType":"finish","participantID":"5p9c48cfhhwf4qloo8lz0gc51le4qb3j","conditionNumber":"expected"},{"rt":null,"stimulus":"\u003cp\u003eNow we will show you another configuration of the anagram\u003c/p\u003e","key_press":null,"trial_type":"html-keyboard-response","trial_index":10,"time_elapsed":65300,"internal_node_id":"0.0-5.1-2.1","responseType":"finish","participantID":"5p9c48cfhhwf4qloo8lz0gc51le4qb3j","conditionNumber":"expected"},{"rt":null,"stimulus":"\u003cp\u003e\u003ch1\u003eNCARGOI\u003c/h1\u003e\u003c/p\u003e","key_press":null,"trial_type":"html-keyboard-response","trial_index":11,"time_elapsed":69302,"internal_node_id":"0.0-5.2-0.2","responseType":"finish","participantID":"5p9c48cfhhwf4qloo8lz0gc51le4qb3j","conditionNumber":"expected"},{"rt":18450,"responses":"{\"Q0\":9}","trial_type":"survey-likert","trial_index":12,"time_elapsed":87753,"internal_node_id":"0.0-5.2-1.2","responseType":"finish","participantID":"5p9c48cfhhwf4qloo8lz0gc51le4qb3j","conditionNumber":"expected"},{"rt":null,"stimulus":"\u003cp\u003eNow we will show you another configuration of the anagram\u003c/p\u003e","key_press":null,"trial_type":"html-keyboard-response","trial_index":13,"time_elapsed":93755,"internal_node_id":"0.0-5.2-2.2","responseType":"finish","participantID":"5p9c48cfhhwf4qloo8lz0gc51le4qb3j","conditionNumber":"expected"},{"rt":null,"stimulus":"\u003cp\u003e\u003ch1\u003eCGOAIRN\u003c/h1\u003e\u003c/p\u003e","key_press":null,"trial_type":"html-keyboard-response","trial_index":14,"time_elapsed":97757,"internal_node_id":"0.0-5.3-0.3","responseType":"finish","participantID":"5p9c48cfhhwf4qloo8lz0gc51le4qb3j","conditionNumber":"expected"},{"rt":3883,"responses":"{\"Q0\":9}","trial_type":"survey-likert","trial_index":15,"time_elapsed":101641,"internal_node_id":"0.0-5.3-1.3","responseType":"finish","participantID":"5p9c48cfhhwf4qloo8lz0gc51le4qb3j","conditionNumber":"expected"},{"rt":null,"stimulus":"\u003cp\u003eNow we will show you another configuration of the anagram\u003c/p\u003e","key_press":null,"trial_type":"html-keyboard-response","trial_index":16,"time_elapsed":107642,"internal_node_id":"0.0-5.3-2.3","responseType":"finish","participantID":"5p9c48cfhhwf4qloo8lz0gc51le4qb3j","conditionNumber":"expected"},{"rt":null,"stimulus":"\u003cp\u003e\u003ch1\u003eAICNRGO\u003c/h1\u003e\u003c/p\u003e","key_press":null,"trial_type":"html-keyboard-response","trial_index":17,"time_elapsed":111644,"internal_node_id":"0.0-5.4-0.4","responseType":"finish","participantID":"5p9c48cfhhwf4qloo8lz0gc51le4qb3j","conditionNumber":"expected"},{"rt":4166,"responses":"{\"Q0\":9}","trial_type":"survey-likert","trial_index":18,"time_elapsed":115811,"internal_node_id":"0.0-5.4-1.4","responseType":"finish","participantID":"5p9c48cfhhwf4qloo8lz0gc51le4qb3j","conditionNumber":"expected"},{"rt":null,"stimulus":"\u003cp\u003eNow we will show you another configuration of the anagram\u003c/p\u003e","key_press":null,"trial_type":"html-keyboard-response","trial_index":19,"time_elapsed":121813,"internal_node_id":"0.0-5.4-2.4","responseType":"finish","participantID":"5p9c48cfhhwf4qloo8lz0gc51le4qb3j","conditionNumber":"expected"},{"rt":null,"stimulus":"\u003cp\u003e\u003ch1\u003eGICRONA\u003c/h1\u003e\u003c/p\u003e","key_press":null,"trial_type":"html-keyboard-response","trial_index":20,"time_elapsed":125814,"internal_node_id":"0.0-5.5-0.5","responseType":"finish","participantID":"5p9c48cfhhwf4qloo8lz0gc51le4qb3j","conditionNumber":"expected"},{"rt":5047,"responses":"{\"Q0\":9}","trial_type":"survey-likert","trial_index":21,"time_elapsed":130863,"internal_node_id":"0.0-5.5-1.5","responseType":"finish","participantID":"5p9c48cfhhwf4qloo8lz0gc51le4qb3j","conditionNumber":"expected"},{"rt":null,"stimulus":"\u003cp\u003eNow we will show you another configuration of the anagram\u003c/p\u003e","key_press":null,"trial_type":"html-keyboard-response","trial_index":22,"time_elapsed":136865,"internal_node_id":"0.0-5.5-2.5","responseType":"finish","participantID":"5p9c48cfhhwf4qloo8lz0gc51le4qb3j","conditionNumber":"expected"},{"rt":null,"stimulus":"\u003cp\u003e\u003ch1\u003eNICGARO\u003c/h1\u003e\u003c/p\u003e","key_press":null,"trial_type":"html-keyboard-response","trial_index":23,"time_elapsed":140866,"internal_node_id":"0.0-5.6-0.6","responseType":"finish","participantID":"5p9c48cfhhwf4qloo8lz0gc51le4qb3j","conditionNumber":"expected"},{"rt":2547,"responses":"{\"Q0\":9}","trial_type":"survey-likert","trial_index":24,"time_elapsed":143415,"internal_node_id":"0.0-5.6-1.6","responseType":"finish","participantID":"5p9c48cfhhwf4qloo8lz0gc51le4qb3j","conditionNumber":"expected"},{"rt":null,"stimulus":"\u003cp\u003eWe will now show you a much \u003cb\u003eeasier\u003c/b\u003e configuration of this anagram\u003c/p\u003e","key_press":null,"trial_type":"html-keyboard-response","trial_index":25,"time_elapsed":149416,"internal_node_id":"0.0-5.6-2.6","responseType":"finish","participantID":"5p9c48cfhhwf4qloo8lz0gc51le4qb3j","conditionNumber":"expected"},{"rt":null,"stimulus":"\u003cp\u003e\u003ch1\u003eORAGNIC\u003c/h1\u003e\u003c/p\u003e","key_press":null,"trial_type":"html-keyboard-response","trial_index":26,"time_elapsed":153418,"internal_node_id":"0.0-5.7-0.7","responseType":"finish","participantID":"5p9c48cfhhwf4qloo8lz0gc51le4qb3j","conditionNumber":"expected"},{"rt":2583,"responses":"{\"Q0\":9}","trial_type":"survey-likert","trial_index":27,"time_elapsed":156003,"internal_node_id":"0.0-5.7-1.7","responseType":"finish","participantID":"5p9c48cfhhwf4qloo8lz0gc51le4qb3j","conditionNumber":"expected"},{"rt":null,"stimulus":"\u003cp\u003eNow we will show you another configuration of the anagram\u003c/p\u003e","key_press":null,"trial_type":"html-keyboard-response","trial_index":28,"time_elapsed":156006,"internal_node_id":"0.0-5.7-2.7","responseType":"finish","participantID":"5p9c48cfhhwf4qloo8lz0gc51le4qb3j","conditionNumber":"expected"},{"rt":6374,"responses":"{\"Q0\":0}","trial_type":"survey-likert","trial_index":29,"time_elapsed":162381,"internal_node_id":"0.0-6.0","responseType":"finish","participantID":"5p9c48cfhhwf4qloo8lz0gc51le4qb3j","conditionNumber":"expected"},{"rt":4679,"stimulus":"\u003ch1 id=\"instructions\"\u003eInstructions\u003c/h1\u003e\n\u003cp\u003eThank you for your attention so far. Now, you will be presented with the second anagram which you have to solve. \u003c/p\u003e\n\u003cp\u003eWe will again present the anagram to you in \u003cstrong\u003eseven\u003c/strong\u003e different configurations. If you have not figured the answer to the anagram by then, then at the \u003cstrong\u003eeighth\u003c/strong\u003e time, we will show a much \u003cstrong\u003eeasier\u003c/strong\u003e configuration of that anagram to you. \u003c/p\u003e\n\u003cp\u003ePlease press the \u003cstrong\u003e'g' key\u003c/strong\u003e to continue once you understand.\u003c/p\u003e","key_press":71,"trial_type":"html-keyboard-response","trial_index":30,"time_elapsed":167060,"internal_node_id":"0.0-7.0","responseType":"finish","participantID":"5p9c48cfhhwf4qloo8lz0gc51le4qb3j","conditionNumber":"expected"},{"rt":8412,"responses":"{\"Q0\":\"7 configurations\"}","trial_type":"survey-multi-choice","trial_index":31,"time_elapsed":175476,"internal_node_id":"0.0-8.0","responseType":"finish","participantID":"5p9c48cfhhwf4qloo8lz0gc51le4qb3j","conditionNumber":"expected"},{"rt":null,"stimulus":"\u003cp\u003e\u003ch1\u003eHNTYUGA\u003c/h1\u003e\u003c/p\u003e","key_press":null,"trial_type":"html-keyboard-response","trial_index":32,"time_elapsed":179478,"internal_node_id":"0.0-9.0-0.0","responseType":"finish","participantID":"5p9c48cfhhwf4qloo8lz0gc51le4qb3j","conditionNumber":"expected"},{"rt":3803,"responses":"{\"Q0\":9}","trial_type":"survey-likert","trial_index":33,"time_elapsed":183282,"internal_node_id":"0.0-9.0-1.0","responseType":"finish","participantID":"5p9c48cfhhwf4qloo8lz0gc51le4qb3j","conditionNumber":"expected"},{"rt":null,"stimulus":"\u003cp\u003eNow we will show you another configuration of the anagram\u003c/p\u003e","key_press":null,"trial_type":"html-keyboard-response","trial_index":34,"time_elapsed":189285,"internal_node_id":"0.0-9.0-2.0","responseType":"finish","participantID":"5p9c48cfhhwf4qloo8lz0gc51le4qb3j","conditionNumber":"expected"},{"rt":null,"stimulus":"\u003cp\u003e\u003ch1\u003eUHNGYAT\u003c/h1\u003e\u003c/p\u003e","key_press":null,"trial_type":"html-keyboard-response","trial_index":35,"time_elapsed":193286,"internal_node_id":"0.0-9.1-0.1","responseType":"finish","participantID":"5p9c48cfhhwf4qloo8lz0gc51le4qb3j","conditionNumber":"expected"},{"rt":2297,"responses":"{\"Q0\":9}","trial_type":"survey-likert","trial_index":36,"time_elapsed":195584,"internal_node_id":"0.0-9.1-1.1","responseType":"finish","participantID":"5p9c48cfhhwf4qloo8lz0gc51le4qb3j","conditionNumber":"expected"},{"rt":null,"stimulus":"\u003cp\u003eNow we will show you another configuration of the anagram\u003c/p\u003e","key_press":null,"trial_type":"html-keyboard-response","trial_index":37,"time_elapsed":201586,"internal_node_id":"0.0-9.1-2.1","responseType":"finish","participantID":"5p9c48cfhhwf4qloo8lz0gc51le4qb3j","conditionNumber":"expected"},{"rt":null,"stimulus":"\u003cp\u003e\u003ch1\u003eYHANUTG\u003c/h1\u003e\u003c/p\u003e","key_press":null,"trial_type":"html-keyboard-response","trial_index":38,"time_elapsed":205587,"internal_node_id":"0.0-9.2-0.2","responseType":"finish","participantID":"5p9c48cfhhwf4qloo8lz0gc51le4qb3j","conditionNumber":"expected"},{"rt":5304,"responses":"{\"Q0\":9}","trial_type":"survey-likert","trial_index":39,"time_elapsed":210892,"internal_node_id":"0.0-9.2-1.2","responseType":"finish","participantID":"5p9c48cfhhwf4qloo8lz0gc51le4qb3j","conditionNumber":"expected"},{"rt":null,"stimulus":"\u003cp\u003eNow we will show you another configuration of the anagram\u003c/p\u003e","key_press":null,"trial_type":"html-keyboard-response","trial_index":40,"time_elapsed":216894,"internal_node_id":"0.0-9.2-2.2","responseType":"finish","participantID":"5p9c48cfhhwf4qloo8lz0gc51le4qb3j","conditionNumber":"expected"},{"rt":null,"stimulus":"\u003cp\u003e\u003ch1\u003eATGNYHU\u003c/h1\u003e\u003c/p\u003e","key_press":null,"trial_type":"html-keyboard-response","trial_index":41,"time_elapsed":220895,"internal_node_id":"0.0-9.3-0.3","responseType":"finish","participantID":"5p9c48cfhhwf4qloo8lz0gc51le4qb3j","conditionNumber":"expected"},{"rt":2226,"responses":"{\"Q0\":9}","trial_type":"survey-likert","trial_index":42,"time_elapsed":223122,"internal_node_id":"0.0-9.3-1.3","responseType":"finish","participantID":"5p9c48cfhhwf4qloo8lz0gc51le4qb3j","conditionNumber":"expected"},{"rt":null,"stimulus":"\u003cp\u003eNow we will show you another configuration of the anagram\u003c/p\u003e","key_press":null,"trial_type":"html-keyboard-response","trial_index":43,"time_elapsed":229124,"internal_node_id":"0.0-9.3-2.3","responseType":"finish","participantID":"5p9c48cfhhwf4qloo8lz0gc51le4qb3j","conditionNumber":"expected"},{"rt":null,"stimulus":"\u003cp\u003e\u003ch1\u003eGANYTHU\u003c/h1\u003e\u003c/p\u003e","key_press":null,"trial_type":"html-keyboard-response","trial_index":44,"time_elapsed":233126,"internal_node_id":"0.0-9.4-0.4","responseType":"finish","participantID":"5p9c48cfhhwf4qloo8lz0gc51le4qb3j","conditionNumber":"expected"},{"rt":4466,"responses":"{\"Q0\":9}","trial_type":"survey-likert","trial_index":45,"time_elapsed":237594,"internal_node_id":"0.0-9.4-1.4","responseType":"finish","participantID":"5p9c48cfhhwf4qloo8lz0gc51le4qb3j","conditionNumber":"expected"},{"rt":null,"stimulus":"\u003cp\u003eNow we will show you another configuration of the anagram\u003c/p\u003e","key_press":null,"trial_type":"html-keyboard-response","trial_index":46,"time_elapsed":243596,"internal_node_id":"0.0-9.4-2.4","responseType":"finish","participantID":"5p9c48cfhhwf4qloo8lz0gc51le4qb3j","conditionNumber":"expected"},{"rt":null,"stimulus":"\u003cp\u003e\u003ch1\u003eTHANYGU\u003c/h1\u003e\u003c/p\u003e","key_press":null,"trial_type":"html-keyboard-response","trial_index":47,"time_elapsed":247598,"internal_node_id":"0.0-9.5-0.5","responseType":"finish","participantID":"5p9c48cfhhwf4qloo8lz0gc51le4qb3j","conditionNumber":"expected"},{"rt":2512,"responses":"{\"Q0\":9}","trial_type":"survey-likert","trial_index":48,"time_elapsed":250112,"internal_node_id":"0.0-9.5-1.5","responseType":"finish","participantID":"5p9c48cfhhwf4qloo8lz0gc51le4qb3j","conditionNumber":"expected"},{"rt":null,"stimulus":"\u003cp\u003eNow we will show you another configuration of the anagram\u003c/p\u003e","key_press":null,"trial_type":"html-keyboard-response","trial_index":49,"time_elapsed":256113,"internal_node_id":"0.0-9.5-2.5","responseType":"finish","participantID":"5p9c48cfhhwf4qloo8lz0gc51le4qb3j","conditionNumber":"expected"},{"rt":null,"stimulus":"\u003cp\u003e\u003ch1\u003eAGNYUTH\u003c/h1\u003e\u003c/p\u003e","key_press":null,"trial_type":"html-keyboard-response","trial_index":50,"time_elapsed":260114,"internal_node_id":"0.0-9.6-0.6","responseType":"finish","participantID":"5p9c48cfhhwf4qloo8lz0gc51le4qb3j","conditionNumber":"expected"},{"rt":2296,"responses":"{\"Q0\":9}","trial_type":"survey-likert","trial_index":51,"time_elapsed":262411,"internal_node_id":"0.0-9.6-1.6","responseType":"finish","participantID":"5p9c48cfhhwf4qloo8lz0gc51le4qb3j","conditionNumber":"expected"},{"rt":null,"stimulus":"\u003cp\u003eWe will now show you a much \u003cb\u003eeasier\u003c/b\u003e configuration of this anagram\u003c/p\u003e","key_press":null,"trial_type":"html-keyboard-response","trial_index":52,"time_elapsed":268413,"internal_node_id":"0.0-9.6-2.6","responseType":"finish","participantID":"5p9c48cfhhwf4qloo8lz0gc51le4qb3j","conditionNumber":"expected"},{"rt":null,"stimulus":"\u003cp\u003e\u003ch1\u003eNAUHGTY\u003c/h1\u003e\u003c/p\u003e","key_press":null,"trial_type":"html-keyboard-response","trial_index":53,"time_elapsed":272415,"internal_node_id":"0.0-9.7-0.7","responseType":"finish","participantID":"5p9c48cfhhwf4qloo8lz0gc51le4qb3j","conditionNumber":"expected"},{"rt":2609,"responses":"{\"Q0\":9}","trial_type":"survey-likert","trial_index":54,"time_elapsed":275025,"internal_node_id":"0.0-9.7-1.7","responseType":"finish","participantID":"5p9c48cfhhwf4qloo8lz0gc51le4qb3j","conditionNumber":"expected"},{"rt":null,"stimulus":"\u003cp\u003eNow we will show you another configuration of the anagram\u003c/p\u003e","key_press":null,"trial_type":"html-keyboard-response","trial_index":55,"time_elapsed":275027,"internal_node_id":"0.0-9.7-2.7","responseType":"finish","participantID":"5p9c48cfhhwf4qloo8lz0gc51le4qb3j","conditionNumber":"expected"},{"rt":3213,"responses":"{\"Q0\":0}","trial_type":"survey-likert","trial_index":56,"time_elapsed":278241,"internal_node_id":"0.0-10.0","responseType":"finish","participantID":"5p9c48cfhhwf4qloo8lz0gc51le4qb3j","conditionNumber":"expected"}],"__v":0}
{"_id":{"$oid":"5d6dd4ec28988500046dc736"},"data":{"responseType":"start","participantID":"ye4gzsat7abbwkgtpex8m14gpmcm25qd","conditionNumber":"unexpected"},"__v":0}
{"_id":{"$oid":"5d6dd50228988500046dc737"},"data":[{"rt":4926,"responses":"{\"Q0\":\" I consent to participate \"}","trial_type":"survey-multi-choice","trial_index":0,"time_elapsed":4932,"internal_node_id":"0.0-0.0","responseType":"finish","participantID":"wz8b34j2xzcxbv48xnegocbbrke1aa54","conditionNumber":"unexpected"},{"trial_type":"call-function","trial_index":1,"time_elapsed":4939,"internal_node_id":"0.0-1.0","responseType":"finish","participantID":"wz8b34j2xzcxbv48xnegocbbrke1aa54","conditionNumber":"unexpected"},{"rt":13763,"stimulus":"\u003ch1 id=\"welcome\"\u003eWelcome\u003c/h1\u003e\n\u003cp\u003eWelcome to the Experiment! In this experiment, we will give you two \u003cem\u003eanagrams\u003c/em\u003e to solve. An \u003cem\u003eanagram\u003c/em\u003e is simply a word or phrase formed by rearranging the letters of another word or phrase. For example:\u003c/p\u003e\n\u003cul\u003e\n\u003cli\u003e\u003cstrong\u003ePOKER\u003c/strong\u003e is an anagram of \u003cstrong\u003ePKOER\u003c/strong\u003e\u003c/li\u003e\n\u003cli\u003e\u003cstrong\u003ePIKE\u003c/strong\u003e is an anagram of \u003cstrong\u003eKEPI\u003c/strong\u003e\u003c/li\u003e\n\u003c/ul\u003e\n\u003cp\u003eWe kindly request for your full attention for the experiment and ask you to refrain from using Google or other search engines. \u003c/p\u003e\n\u003cp\u003ePlease press the \u003cstrong\u003e'n' key\u003c/strong\u003e to continue once you understand.\u003c/p\u003e","key_press":78,"trial_type":"html-keyboard-response","trial_index":2,"time_elapsed":18703,"internal_node_id":"0.0-2.0","responseType":"finish","participantID":"wz8b34j2xzcxbv48xnegocbbrke1aa54","conditionNumber":"unexpected"},{"rt":10432,"stimulus":"\u003ch1 id=\"instructions\"\u003eInstructions\u003c/h1\u003e\n\u003cp\u003eWhen you click next, you will be presented with an anagram that will be displayed for 4 seconds. Following that, the \u003cem\u003esame\u003c/em\u003e anagram will be presented to you again in a \u003cem\u003edifferent\u003c/em\u003e configuration for 4 seconds. \u003c/p\u003e\n\u003cp\u003eIn total, we will present the anagram to you in \u003cstrong\u003eseven\u003c/strong\u003e different configurations. If you have not figured the answer to the anagram by then, then at the \u003cstrong\u003eeighth\u003c/strong\u003e time, we will show a much \u003cstrong\u003eeasier\u003c/strong\u003e configuration of that anagram to you. \u003c/p\u003e\n\u003cp\u003eAs an example, you may be presented with random configurations such as: \u003cstrong\u003eONLEM\u003c/strong\u003e, \u003cstrong\u003eMOELN\u003c/strong\u003e, \u003cstrong\u003eNMEOL\u003c/strong\u003e, and finally the easier configuration, \u003cstrong\u003eLMEON\u003c/strong\u003e. Here, these configurations come from the same anagram, LEMON and your goal was figuring out the underlying anagram. \u003c/p\u003e\n\u003cp\u003ePlease press the \u003cstrong\u003e'm' key\u003c/strong\u003e to continue once you understand.\u003c/p\u003e","key_press":77,"trial_type":"html-keyboard-response","trial_index":3,"time_elapsed":29136,"internal_node_id":"0.0-3.0","responseType":"finish","participantID":"wz8b34j2xzcxbv48xnegocbbrke1aa54","conditionNumber":"unexpected"},{"rt":11528,"stimulus":"\u003ch1 id=\"instructions\"\u003eInstructions\u003c/h1\u003e\n\u003cp\u003eNow, we will present you the first anagram which you have to solve. We will present the anagram to you in \u003cstrong\u003eseven\u003c/strong\u003e different configurations. If you have not figured the answer to the anagram by then, then we will show a much \u003cstrong\u003eeasier\u003c/strong\u003e configuration to you in the \u003cstrong\u003eeighth\u003c/strong\u003e iteration. \u003c/p\u003e\n\u003cp\u003ePlease press the \u003cstrong\u003e'b' key\u003c/strong\u003e to continue.\u003c/p\u003e","key_press":66,"trial_type":"html-keyboard-response","trial_index":4,"time_elapsed":40664,"internal_node_id":"0.0-4.0","responseType":"finish","participantID":"wz8b34j2xzcxbv48xnegocbbrke1aa54","conditionNumber":"unexpected"},{"rt":null,"stimulus":"\u003cp\u003e\u003ch1\u003eIACGNOR\u003c/h1\u003e\u003c/p\u003e","key_press":null,"trial_type":"html-keyboard-response","trial_index":5,"time_elapsed":44667,"internal_node_id":"0.0-5.0-0.0","responseType":"finish","participantID":"wz8b34j2xzcxbv48xnegocbbrke1aa54","conditionNumber":"unexpected"},{"rt":3094,"responses":"{\"Q0\":0}","trial_type":"survey-likert","trial_index":6,"time_elapsed":47764,"internal_node_id":"0.0-5.0-1.0","responseType":"finish","participantID":"wz8b34j2xzcxbv48xnegocbbrke1aa54","conditionNumber":"unexpected"},{"rt":null,"stimulus":"\u003cp\u003eNow we will show you another configuration of the anagram\u003c/p\u003e","key_press":null,"trial_type":"html-keyboard-response","trial_index":7,"time_elapsed":53767,"internal_node_id":"0.0-5.0-2.0","responseType":"finish","participantID":"wz8b34j2xzcxbv48xnegocbbrke1aa54","conditionNumber":"unexpected"},{"rt":null,"stimulus":"\u003cp\u003e\u003ch1\u003eRAIOCNG\u003c/h1\u003e\u003c/p\u003e","key_press":null,"trial_type":"html-keyboard-response","trial_index":8,"time_elapsed":57769,"internal_node_id":"0.0-5.1-0.1","responseType":"finish","participantID":"wz8b34j2xzcxbv48xnegocbbrke1aa54","conditionNumber":"unexpected"},{"rt":1857,"responses":"{\"Q0\":0}","trial_type":"survey-likert","trial_index":9,"time_elapsed":59627,"internal_node_id":"0.0-5.1-1.1","responseType":"finish","participantID":"wz8b34j2xzcxbv48xnegocbbrke1aa54","conditionNumber":"unexpected"},{"rt":null,"stimulus":"\u003cp\u003eNow we will show you another configuration of the anagram\u003c/p\u003e","key_press":null,"trial_type":"html-keyboard-response","trial_index":10,"time_elapsed":65630,"internal_node_id":"0.0-5.1-2.1","responseType":"finish","participantID":"wz8b34j2xzcxbv48xnegocbbrke1aa54","conditionNumber":"unexpected"},{"rt":null,"stimulus":"\u003cp\u003e\u003ch1\u003eNCARGOI\u003c/h1\u003e\u003c/p\u003e","key_press":null,"trial_type":"html-keyboard-response","trial_index":11,"time_elapsed":69632,"internal_node_id":"0.0-5.2-0.2","responseType":"finish","participantID":"wz8b34j2xzcxbv48xnegocbbrke1aa54","conditionNumber":"unexpected"},{"rt":2273,"responses":"{\"Q0\":0}","trial_type":"survey-likert","trial_index":12,"time_elapsed":71907,"internal_node_id":"0.0-5.2-1.2","responseType":"finish","participantID":"wz8b34j2xzcxbv48xnegocbbrke1aa54","conditionNumber":"unexpected"},{"rt":null,"stimulus":"\u003cp\u003eNow we will show you another configuration of the anagram\u003c/p\u003e","key_press":null,"trial_type":"html-keyboard-response","trial_index":13,"time_elapsed":77910,"internal_node_id":"0.0-5.2-2.2","responseType":"finish","participantID":"wz8b34j2xzcxbv48xnegocbbrke1aa54","conditionNumber":"unexpected"},{"rt":null,"stimulus":"\u003cp\u003e\u003ch1\u003eCGOAIRN\u003c/h1\u003e\u003c/p\u003e","key_press":null,"trial_type":"html-keyboard-response","trial_index":14,"time_elapsed":81912,"internal_node_id":"0.0-5.3-0.3","responseType":"finish","participantID":"wz8b34j2xzcxbv48xnegocbbrke1aa54","conditionNumber":"unexpected"},{"rt":1529,"responses":"{\"Q0\":0}","trial_type":"survey-likert","trial_index":15,"time_elapsed":83443,"internal_node_id":"0.0-5.3-1.3","responseType":"finish","participantID":"wz8b34j2xzcxbv48xnegocbbrke1aa54","conditionNumber":"unexpected"},{"rt":null,"stimulus":"\u003cp\u003eNow we will show you another configuration of the anagram\u003c/p\u003e","key_press":null,"trial_type":"html-keyboard-response","trial_index":16,"time_elapsed":89446,"internal_node_id":"0.0-5.3-2.3","responseType":"finish","participantID":"wz8b34j2xzcxbv48xnegocbbrke1aa54","conditionNumber":"unexpected"},{"rt":null,"stimulus":"\u003cp\u003e\u003ch1\u003eAICNRGO\u003c/h1\u003e\u003c/p\u003e","key_press":null,"trial_type":"html-keyboard-response","trial_index":17,"time_elapsed":93447,"internal_node_id":"0.0-5.4-0.4","responseType":"finish","participantID":"wz8b34j2xzcxbv48xnegocbbrke1aa54","conditionNumber":"unexpected"},{"rt":2042,"responses":"{\"Q0\":0}","trial_type":"survey-likert","trial_index":18,"time_elapsed":95491,"internal_node_id":"0.0-5.4-1.4","responseType":"finish","participantID":"wz8b34j2xzcxbv48xnegocbbrke1aa54","conditionNumber":"unexpected"},{"rt":null,"stimulus":"\u003cp\u003eNow we will show you another configuration of the anagram\u003c/p\u003e","key_press":null,"trial_type":"html-keyboard-response","trial_index":19,"time_elapsed":101493,"internal_node_id":"0.0-5.4-2.4","responseType":"finish","participantID":"wz8b34j2xzcxbv48xnegocbbrke1aa54","conditionNumber":"unexpected"},{"rt":null,"stimulus":"\u003cp\u003e\u003ch1\u003eGICRONA\u003c/h1\u003e\u003c/p\u003e","key_press":null,"trial_type":"html-keyboard-response","trial_index":20,"time_elapsed":105494,"internal_node_id":"0.0-5.5-0.5","responseType":"finish","participantID":"wz8b34j2xzcxbv48xnegocbbrke1aa54","conditionNumber":"unexpected"},{"rt":2979,"responses":"{\"Q0\":0}","trial_type":"survey-likert","trial_index":21,"time_elapsed":108475,"internal_node_id":"0.0-5.5-1.5","responseType":"finish","participantID":"wz8b34j2xzcxbv48xnegocbbrke1aa54","conditionNumber":"unexpected"},{"rt":null,"stimulus":"\u003cp\u003eNow we will show you another configuration of the anagram\u003c/p\u003e","key_press":null,"trial_type":"html-keyboard-response","trial_index":22,"time_elapsed":114477,"internal_node_id":"0.0-5.5-2.5","responseType":"finish","participantID":"wz8b34j2xzcxbv48xnegocbbrke1aa54","conditionNumber":"unexpected"},{"rt":null,"stimulus":"\u003cp\u003e\u003ch1\u003eNICGARO\u003c/h1\u003e\u003c/p\u003e","key_press":null,"trial_type":"html-keyboard-response","trial_index":23,"time_elapsed":118479,"internal_node_id":"0.0-5.6-0.6","responseType":"finish","participantID":"wz8b34j2xzcxbv48xnegocbbrke1aa54","conditionNumber":"unexpected"},{"rt":2491,"responses":"{\"Q0\":0}","trial_type":"survey-likert","trial_index":24,"time_elapsed":120971,"internal_node_id":"0.0-5.6-1.6","responseType":"finish","participantID":"wz8b34j2xzcxbv48xnegocbbrke1aa54","conditionNumber":"unexpected"},{"rt":null,"stimulus":"\u003cp\u003eWe will now show you a much \u003cb\u003eeasier\u003c/b\u003e configuration of this anagram\u003c/p\u003e","key_press":null,"trial_type":"html-keyboard-response","trial_index":25,"time_elapsed":126973,"internal_node_id":"0.0-5.6-2.6","responseType":"finish","participantID":"wz8b34j2xzcxbv48xnegocbbrke1aa54","conditionNumber":"unexpected"},{"rt":null,"stimulus":"\u003cp\u003e\u003ch1\u003eORAGNIC\u003c/h1\u003e\u003c/p\u003e","key_press":null,"trial_type":"html-keyboard-response","trial_index":26,"time_elapsed":130974,"internal_node_id":"0.0-5.7-0.7","responseType":"finish","participantID":"wz8b34j2xzcxbv48xnegocbbrke1aa54","conditionNumber":"unexpected"},{"rt":2147,"responses":"{\"Q0\":9}","trial_type":"survey-likert","trial_index":27,"time_elapsed":133123,"internal_node_id":"0.0-5.7-1.7","responseType":"finish","participantID":"wz8b34j2xzcxbv48xnegocbbrke1aa54","conditionNumber":"unexpected"},{"rt":null,"stimulus":"\u003cp\u003eNow we will show you another configuration of the anagram\u003c/p\u003e","key_press":null,"trial_type":"html-keyboard-response","trial_index":28,"time_elapsed":133125,"internal_node_id":"0.0-5.7-2.7","responseType":"finish","participantID":"wz8b34j2xzcxbv48xnegocbbrke1aa54","conditionNumber":"unexpected"},{"rt":7532,"responses":"{\"Q0\":6}","trial_type":"survey-likert","trial_index":29,"time_elapsed":140659,"internal_node_id":"0.0-6.0","responseType":"finish","participantID":"wz8b34j2xzcxbv48xnegocbbrke1aa54","conditionNumber":"unexpected"},{"rt":4762,"stimulus":"\u003ch1 id=\"instructions\"\u003eInstructions\u003c/h1\u003e\n\u003cp\u003eThank you for your attention so far. Now, you will be presented with the second anagram which you have to solve. \u003c/p\u003e\n\u003cp\u003eWe will again present the anagram to you in \u003cstrong\u003eseven\u003c/strong\u003e different configurations. If you have not figured the answer to the anagram by then, then at the \u003cstrong\u003eeighth\u003c/strong\u003e time, we will show a much \u003cstrong\u003eeasier\u003c/strong\u003e configuration of that anagram to you. \u003c/p\u003e\n\u003cp\u003ePlease press the \u003cstrong\u003e'g' key\u003c/strong\u003e to continue once you understand.\u003c/p\u003e","key_press":71,"trial_type":"html-keyboard-response","trial_index":30,"time_elapsed":145422,"internal_node_id":"0.0-7.0","responseType":"finish","participantID":"wz8b34j2xzcxbv48xnegocbbrke1aa54","conditionNumber":"unexpected"},{"rt":5282,"responses":"{\"Q0\":\"7 configurations\"}","trial_type":"survey-multi-choice","trial_index":31,"time_elapsed":150707,"internal_node_id":"0.0-8.0","responseType":"finish","participantID":"wz8b34j2xzcxbv48xnegocbbrke1aa54","conditionNumber":"unexpected"},{"rt":null,"stimulus":"\u003cp\u003e\u003ch1\u003eHNTYUGA\u003c/h1\u003e\u003c/p\u003e","key_press":null,"trial_type":"html-keyboard-response","trial_index":32,"time_elapsed":154708,"internal_node_id":"0.0-9.0-0.0","responseType":"finish","participantID":"wz8b34j2xzcxbv48xnegocbbrke1aa54","conditionNumber":"unexpected"},{"rt":2173,"responses":"{\"Q0\":0}","trial_type":"survey-likert","trial_index":33,"time_elapsed":156883,"internal_node_id":"0.0-9.0-1.0","responseType":"finish","participantID":"wz8b34j2xzcxbv48xnegocbbrke1aa54","conditionNumber":"unexpected"},{"rt":null,"stimulus":"\u003cp\u003eNow we will show you another configuration of the anagram\u003c/p\u003e","key_press":null,"trial_type":"html-keyboard-response","trial_index":34,"time_elapsed":162885,"internal_node_id":"0.0-9.0-2.0","responseType":"finish","participantID":"wz8b34j2xzcxbv48xnegocbbrke1aa54","conditionNumber":"unexpected"},{"rt":null,"stimulus":"\u003cp\u003e\u003ch1\u003eUHNGYAT\u003c/h1\u003e\u003c/p\u003e","key_press":null,"trial_type":"html-keyboard-response","trial_index":35,"time_elapsed":166886,"internal_node_id":"0.0-9.1-0.1","responseType":"finish","participantID":"wz8b34j2xzcxbv48xnegocbbrke1aa54","conditionNumber":"unexpected"},{"rt":2356,"responses":"{\"Q0\":0}","trial_type":"survey-likert","trial_index":36,"time_elapsed":169243,"internal_node_id":"0.0-9.1-1.1","responseType":"finish","participantID":"wz8b34j2xzcxbv48xnegocbbrke1aa54","conditionNumber":"unexpected"},{"rt":null,"stimulus":"\u003cp\u003eNow we will show you another configuration of the anagram\u003c/p\u003e","key_press":null,"trial_type":"html-keyboard-response","trial_index":37,"time_elapsed":175247,"internal_node_id":"0.0-9.1-2.1","responseType":"finish","participantID":"wz8b34j2xzcxbv48xnegocbbrke1aa54","conditionNumber":"unexpected"},{"rt":null,"stimulus":"\u003cp\u003e\u003ch1\u003eYHANUTG\u003c/h1\u003e\u003c/p\u003e","key_press":null,"trial_type":"html-keyboard-response","trial_index":38,"time_elapsed":179249,"internal_node_id":"0.0-9.2-0.2","responseType":"finish","participantID":"wz8b34j2xzcxbv48xnegocbbrke1aa54","conditionNumber":"unexpected"},{"rt":2017,"responses":"{\"Q0\":0}","trial_type":"survey-likert","trial_index":39,"time_elapsed":181267,"internal_node_id":"0.0-9.2-1.2","responseType":"finish","participantID":"wz8b34j2xzcxbv48xnegocbbrke1aa54","conditionNumber":"unexpected"},{"rt":null,"stimulus":"\u003cp\u003eNow we will show you another configuration of the anagram\u003c/p\u003e","key_press":null,"trial_type":"html-keyboard-response","trial_index":40,"time_elapsed":187269,"internal_node_id":"0.0-9.2-2.2","responseType":"finish","participantID":"wz8b34j2xzcxbv48xnegocbbrke1aa54","conditionNumber":"unexpected"},{"rt":null,"stimulus":"\u003cp\u003e\u003ch1\u003eNAUHGTY\u003c/h1\u003e\u003c/p\u003e","key_press":null,"trial_type":"html-keyboard-response","trial_index":41,"time_elapsed":191271,"internal_node_id":"0.0-9.3-0.3","responseType":"finish","participantID":"wz8b34j2xzcxbv48xnegocbbrke1aa54","conditionNumber":"unexpected"},{"rt":1811,"responses":"{\"Q0\":9}","trial_type":"survey-likert","trial_index":42,"time_elapsed":193083,"internal_node_id":"0.0-9.3-1.3","responseType":"finish","participantID":"wz8b34j2xzcxbv48xnegocbbrke1aa54","conditionNumber":"unexpected"},{"rt":null,"stimulus":"\u003cp\u003eNow we will show you another configuration of the anagram\u003c/p\u003e","key_press":null,"trial_type":"html-keyboard-response","trial_index":43,"time_elapsed":193086,"internal_node_id":"0.0-9.3-2.3","responseType":"finish","participantID":"wz8b34j2xzcxbv48xnegocbbrke1aa54","conditionNumber":"unexpected"},{"rt":2924,"responses":"{\"Q0\":6}","trial_type":"survey-likert","trial_index":44,"time_elapsed":196011,"internal_node_id":"0.0-10.0","responseType":"finish","participantID":"wz8b34j2xzcxbv48xnegocbbrke1aa54","conditionNumber":"unexpected"}],"__v":0}
{"_id":{"$oid":"5d6dd50228988500046dc738"},"data":{"responseType":"start","participantID":"zkcefw93ze26w8487af479bovc2dsnx3","conditionNumber":"unexpected"},"__v":0}
{"_id":{"$oid":"5d6dd50528988500046dc739"},"data":[{"rt":3203,"responses":"{\"Q0\":\" I consent to participate \"}","trial_type":"survey-multi-choice","trial_index":0,"time_elapsed":3205,"internal_node_id":"0.0-0.0","responseType":"finish","participantID":"yg3ogmm1l1u7vq5y9cpq7szzzd231hz9","conditionNumber":"unexpected"},{"trial_type":"call-function","trial_index":1,"time_elapsed":3208,"internal_node_id":"0.0-1.0","responseType":"finish","participantID":"yg3ogmm1l1u7vq5y9cpq7szzzd231hz9","conditionNumber":"unexpected"},{"rt":4125,"stimulus":"\u003ch1 id=\"welcome\"\u003eWelcome\u003c/h1\u003e\n\u003cp\u003eWelcome to the Experiment! In this experiment, we will give you two \u003cem\u003eanagrams\u003c/em\u003e to solve. An \u003cem\u003eanagram\u003c/em\u003e is simply a word or phrase formed by rearranging the letters of another word or phrase. For example:\u003c/p\u003e\n\u003cul\u003e\n\u003cli\u003e\u003cstrong\u003ePOKER\u003c/strong\u003e is an anagram of \u003cstrong\u003ePKOER\u003c/strong\u003e\u003c/li\u003e\n\u003cli\u003e\u003cstrong\u003ePIKE\u003c/strong\u003e is an anagram of \u003cstrong\u003eKEPI\u003c/strong\u003e\u003c/li\u003e\n\u003c/ul\u003e\n\u003cp\u003eWe kindly request for your full attention for the experiment and ask you to refrain from using Google or other search engines. \u003c/p\u003e\n\u003cp\u003ePlease press the \u003cstrong\u003e'n' key\u003c/strong\u003e to continue once you understand.\u003c/p\u003e","key_press":78,"trial_type":"html-keyboard-response","trial_index":2,"time_elapsed":7336,"internal_node_id":"0.0-2.0","responseType":"finish","participantID":"yg3ogmm1l1u7vq5y9cpq7szzzd231hz9","conditionNumber":"unexpected"},{"rt":9572,"stimulus":"\u003ch1 id=\"instructions\"\u003eInstructions\u003c/h1\u003e\n\u003cp\u003eWhen you click next, you will be presented with an anagram that will be displayed for 4 seconds. Following that, the \u003cem\u003esame\u003c/em\u003e anagram will be presented to you again in a \u003cem\u003edifferent\u003c/em\u003e configuration for 4 seconds. \u003c/p\u003e\n\u003cp\u003eIn total, we will present the anagram to you in \u003cstrong\u003eseven\u003c/strong\u003e different configurations. If you have not figured the answer to the anagram by then, then at the \u003cstrong\u003eeighth\u003c/strong\u003e time, we will show a much \u003cstrong\u003eeasier\u003c/strong\u003e configuration of that anagram to you. \u003c/p\u003e\n\u003cp\u003eAs an example, you may be presented with random configurations such as: \u003cstrong\u003eONLEM\u003c/strong\u003e, \u003cstrong\u003eMOELN\u003c/strong\u003e, \u003cstrong\u003eNMEOL\u003c/strong\u003e, and finally the easier configuration, \u003cstrong\u003eLMEON\u003c/strong\u003e. Here, these configurations come from the same anagram, LEMON and your goal was figuring out the underlying anagram. \u003c/p\u003e\n\u003cp\u003ePlease press the \u003cstrong\u003e'm' key\u003c/strong\u003e to continue once you understand.\u003c/p\u003e","key_press":77,"trial_type":"html-keyboard-response","trial_index":3,"time_elapsed":16911,"internal_node_id":"0.0-3.0","responseType":"finish","participantID":"yg3ogmm1l1u7vq5y9cpq7szzzd231hz9","conditionNumber":"unexpected"},{"rt":3332,"stimulus":"\u003ch1 id=\"instructions\"\u003eInstructions\u003c/h1\u003e\n\u003cp\u003eNow, we will present you the first anagram which you have to solve. We will present the anagram to you in \u003cstrong\u003eseven\u003c/strong\u003e different configurations. If you have not figured the answer to the anagram by then, then we will show a much \u003cstrong\u003eeasier\u003c/strong\u003e configuration to you in the \u003cstrong\u003eeighth\u003c/strong\u003e iteration. \u003c/p\u003e\n\u003cp\u003ePlease press the \u003cstrong\u003e'b' key\u003c/strong\u003e to continue.\u003c/p\u003e","key_press":66,"trial_type":"html-keyboard-response","trial_index":4,"time_elapsed":20245,"internal_node_id":"0.0-4.0","responseType":"finish","participantID":"yg3ogmm1l1u7vq5y9cpq7szzzd231hz9","conditionNumber":"unexpected"},{"rt":null,"stimulus":"\u003cp\u003e\u003ch1\u003eIACGNOR\u003c/h1\u003e\u003c/p\u003e","key_press":null,"trial_type":"html-keyboard-response","trial_index":5,"time_elapsed":24250,"internal_node_id":"0.0-5.0-0.0","responseType":"finish","participantID":"yg3ogmm1l1u7vq5y9cpq7szzzd231hz9","conditionNumber":"unexpected"},{"rt":4735,"responses":"{\"Q0\":0}","trial_type":"survey-likert","trial_index":6,"time_elapsed":28988,"internal_node_id":"0.0-5.0-1.0","responseType":"finish","participantID":"yg3ogmm1l1u7vq5y9cpq7szzzd231hz9","conditionNumber":"unexpected"},{"rt":null,"stimulus":"\u003cp\u003eNow we will show you another configuration of the anagram\u003c/p\u003e","key_press":null,"trial_type":"html-keyboard-response","trial_index":7,"time_elapsed":34990,"internal_node_id":"0.0-5.0-2.0","responseType":"finish","participantID":"yg3ogmm1l1u7vq5y9cpq7szzzd231hz9","conditionNumber":"unexpected"},{"rt":null,"stimulus":"\u003cp\u003e\u003ch1\u003eRAIOCNG\u003c/h1\u003e\u003c/p\u003e","key_press":null,"trial_type":"html-keyboard-response","trial_index":8,"time_elapsed":38995,"internal_node_id":"0.0-5.1-0.1","responseType":"finish","participantID":"yg3ogmm1l1u7vq5y9cpq7szzzd231hz9","conditionNumber":"unexpected"},{"rt":1918,"responses":"{\"Q0\":0}","trial_type":"survey-likert","trial_index":9,"time_elapsed":40915,"internal_node_id":"0.0-5.1-1.1","responseType":"finish","participantID":"yg3ogmm1l1u7vq5y9cpq7szzzd231hz9","conditionNumber":"unexpected"},{"rt":null,"stimulus":"\u003cp\u003eNow we will show you another configuration of the anagram\u003c/p\u003e","key_press":null,"trial_type":"html-keyboard-response","trial_index":10,"time_elapsed":46918,"internal_node_id":"0.0-5.1-2.1","responseType":"finish","participantID":"yg3ogmm1l1u7vq5y9cpq7szzzd231hz9","conditionNumber":"unexpected"},{"rt":null,"stimulus":"\u003cp\u003e\u003ch1\u003eNCARGOI\u003c/h1\u003e\u003c/p\u003e","key_press":null,"trial_type":"html-keyboard-response","trial_index":11,"time_elapsed":50920,"internal_node_id":"0.0-5.2-0.2","responseType":"finish","participantID":"yg3ogmm1l1u7vq5y9cpq7szzzd231hz9","conditionNumber":"unexpected"},{"rt":1838,"responses":"{\"Q0\":0}","trial_type":"survey-likert","trial_index":12,"time_elapsed":52759,"internal_node_id":"0.0-5.2-1.2","responseType":"finish","participantID":"yg3ogmm1l1u7vq5y9cpq7szzzd231hz9","conditionNumber":"unexpected"},{"rt":null,"stimulus":"\u003cp\u003eNow we will show you another configuration of the anagram\u003c/p\u003e","key_press":null,"trial_type":"html-keyboard-response","trial_index":13,"time_elapsed":58762,"internal_node_id":"0.0-5.2-2.2","responseType":"finish","participantID":"yg3ogmm1l1u7vq5y9cpq7szzzd231hz9","conditionNumber":"unexpected"},{"rt":null,"stimulus":"\u003cp\u003e\u003ch1\u003eCGOAIRN\u003c/h1\u003e\u003c/p\u003e","key_press":null,"trial_type":"html-keyboard-response","trial_index":14,"time_elapsed":62764,"internal_node_id":"0.0-5.3-0.3","responseType":"finish","participantID":"yg3ogmm1l1u7vq5y9cpq7szzzd231hz9","conditionNumber":"unexpected"},{"rt":1669,"responses":"{\"Q0\":0}","trial_type":"survey-likert","trial_index":15,"time_elapsed":64435,"internal_node_id":"0.0-5.3-1.3","responseType":"finish","participantID":"yg3ogmm1l1u7vq5y9cpq7szzzd231hz9","conditionNumber":"unexpected"},{"rt":null,"stimulus":"\u003cp\u003eNow we will show you another configuration of the anagram\u003c/p\u003e","key_press":null,"trial_type":"html-keyboard-response","trial_index":16,"time_elapsed":70437,"internal_node_id":"0.0-5.3-2.3","responseType":"finish","participantID":"yg3ogmm1l1u7vq5y9cpq7szzzd231hz9","conditionNumber":"unexpected"},{"rt":null,"stimulus":"\u003cp\u003e\u003ch1\u003eAICNRGO\u003c/h1\u003e\u003c/p\u003e","key_press":null,"trial_type":"html-keyboard-response","trial_index":17,"time_elapsed":74440,"internal_node_id":"0.0-5.4-0.4","responseType":"finish","participantID":"yg3ogmm1l1u7vq5y9cpq7szzzd231hz9","conditionNumber":"unexpected"},{"rt":1551,"responses":"{\"Q0\":0}","trial_type":"survey-likert","trial_index":18,"time_elapsed":75993,"internal_node_id":"0.0-5.4-1.4","responseType":"finish","participantID":"yg3ogmm1l1u7vq5y9cpq7szzzd231hz9","conditionNumber":"unexpected"},{"rt":null,"stimulus":"\u003cp\u003eNow we will show you another configuration of the anagram\u003c/p\u003e","key_press":null,"trial_type":"html-keyboard-response","trial_index":19,"time_elapsed":81994,"internal_node_id":"0.0-5.4-2.4","responseType":"finish","participantID":"yg3ogmm1l1u7vq5y9cpq7szzzd231hz9","conditionNumber":"unexpected"},{"rt":null,"stimulus":"\u003cp\u003e\u003ch1\u003eGICRONA\u003c/h1\u003e\u003c/p\u003e","key_press":null,"trial_type":"html-keyboard-response","trial_index":20,"time_elapsed":85997,"internal_node_id":"0.0-5.5-0.5","responseType":"finish","participantID":"yg3ogmm1l1u7vq5y9cpq7szzzd231hz9","conditionNumber":"unexpected"},{"rt":1647,"responses":"{\"Q0\":0}","trial_type":"survey-likert","trial_index":21,"time_elapsed":87645,"internal_node_id":"0.0-5.5-1.5","responseType":"finish","participantID":"yg3ogmm1l1u7vq5y9cpq7szzzd231hz9","conditionNumber":"unexpected"},{"rt":null,"stimulus":"\u003cp\u003eNow we will show you another configuration of the anagram\u003c/p\u003e","key_press":null,"trial_type":"html-keyboard-response","trial_index":22,"time_elapsed":93647,"internal_node_id":"0.0-5.5-2.5","responseType":"finish","participantID":"yg3ogmm1l1u7vq5y9cpq7szzzd231hz9","conditionNumber":"unexpected"},{"rt":null,"stimulus":"\u003cp\u003e\u003ch1\u003eNICGARO\u003c/h1\u003e\u003c/p\u003e","key_press":null,"trial_type":"html-keyboard-response","trial_index":23,"time_elapsed":97650,"internal_node_id":"0.0-5.6-0.6","responseType":"finish","participantID":"yg3ogmm1l1u7vq5y9cpq7szzzd231hz9","conditionNumber":"unexpected"},{"rt":2957,"responses":"{\"Q0\":0}","trial_type":"survey-likert","trial_index":24,"time_elapsed":100609,"internal_node_id":"0.0-5.6-1.6","responseType":"finish","participantID":"yg3ogmm1l1u7vq5y9cpq7szzzd231hz9","conditionNumber":"unexpected"},{"rt":null,"stimulus":"\u003cp\u003eWe will now show you a much \u003cb\u003eeasier\u003c/b\u003e configuration of this anagram\u003c/p\u003e","key_press":null,"trial_type":"html-keyboard-response","trial_index":25,"time_elapsed":106612,"internal_node_id":"0.0-5.6-2.6","responseType":"finish","participantID":"yg3ogmm1l1u7vq5y9cpq7szzzd231hz9","conditionNumber":"unexpected"},{"rt":null,"stimulus":"\u003cp\u003e\u003ch1\u003eORAGNIC\u003c/h1\u003e\u003c/p\u003e","key_press":null,"trial_type":"html-keyboard-response","trial_index":26,"time_elapsed":110614,"internal_node_id":"0.0-5.7-0.7","responseType":"finish","participantID":"yg3ogmm1l1u7vq5y9cpq7szzzd231hz9","conditionNumber":"unexpected"},{"rt":2227,"responses":"{\"Q0\":8}","trial_type":"survey-likert","trial_index":27,"time_elapsed":112843,"internal_node_id":"0.0-5.7-1.7","responseType":"finish","participantID":"yg3ogmm1l1u7vq5y9cpq7szzzd231hz9","conditionNumber":"unexpected"},{"rt":null,"stimulus":"\u003cp\u003eNow we will show you another configuration of the anagram\u003c/p\u003e","key_press":null,"trial_type":"html-keyboard-response","trial_index":28,"time_elapsed":112846,"internal_node_id":"0.0-5.7-2.7","responseType":"finish","participantID":"yg3ogmm1l1u7vq5y9cpq7szzzd231hz9","conditionNumber":"unexpected"},{"rt":4155,"responses":"{\"Q0\":6}","trial_type":"survey-likert","trial_index":29,"time_elapsed":117003,"internal_node_id":"0.0-6.0","responseType":"finish","participantID":"yg3ogmm1l1u7vq5y9cpq7szzzd231hz9","conditionNumber":"unexpected"},{"rt":4033,"stimulus":"\u003ch1 id=\"instructions\"\u003eInstructions\u003c/h1\u003e\n\u003cp\u003eThank you for your attention so far. Now, you will be presented with the second anagram which you have to solve. \u003c/p\u003e\n\u003cp\u003eWe will again present the anagram to you in \u003cstrong\u003eseven\u003c/strong\u003e different configurations. If you have not figured the answer to the anagram by then, then at the \u003cstrong\u003eeighth\u003c/strong\u003e time, we will show a much \u003cstrong\u003eeasier\u003c/strong\u003e configuration of that anagram to you. \u003c/p\u003e\n\u003cp\u003ePlease press the \u003cstrong\u003e'g' key\u003c/strong\u003e to continue once you understand.\u003c/p\u003e","key_press":71,"trial_type":"html-keyboard-response","trial_index":30,"time_elapsed":121038,"internal_node_id":"0.0-7.0","responseType":"finish","participantID":"yg3ogmm1l1u7vq5y9cpq7szzzd231hz9","conditionNumber":"unexpected"},{"rt":3765,"responses":"{\"Q0\":\"7 configurations\"}","trial_type":"survey-multi-choice","trial_index":31,"time_elapsed":124811,"internal_node_id":"0.0-8.0","responseType":"finish","participantID":"yg3ogmm1l1u7vq5y9cpq7szzzd231hz9","conditionNumber":"unexpected"},{"rt":null,"stimulus":"\u003cp\u003e\u003ch1\u003eHNTYUGA\u003c/h1\u003e\u003c/p\u003e","key_press":null,"trial_type":"html-keyboard-response","trial_index":32,"time_elapsed":128814,"internal_node_id":"0.0-9.0-0.0","responseType":"finish","participantID":"yg3ogmm1l1u7vq5y9cpq7szzzd231hz9","conditionNumber":"unexpected"},{"rt":1519,"responses":"{\"Q0\":0}","trial_type":"survey-likert","trial_index":33,"time_elapsed":130335,"internal_node_id":"0.0-9.0-1.0","responseType":"finish","participantID":"yg3ogmm1l1u7vq5y9cpq7szzzd231hz9","conditionNumber":"unexpected"},{"rt":null,"stimulus":"\u003cp\u003eNow we will show you another configuration of the anagram\u003c/p\u003e","key_press":null,"trial_type":"html-keyboard-response","trial_index":34,"time_elapsed":136336,"internal_node_id":"0.0-9.0-2.0","responseType":"finish","participantID":"yg3ogmm1l1u7vq5y9cpq7szzzd231hz9","conditionNumber":"unexpected"},{"rt":null,"stimulus":"\u003cp\u003e\u003ch1\u003eUHNGYAT\u003c/h1\u003e\u003c/p\u003e","key_press":null,"trial_type":"html-keyboard-response","trial_index":35,"time_elapsed":140338,"internal_node_id":"0.0-9.1-0.1","responseType":"finish","participantID":"yg3ogmm1l1u7vq5y9cpq7szzzd231hz9","conditionNumber":"unexpected"},{"rt":1647,"responses":"{\"Q0\":0}","trial_type":"survey-likert","trial_index":36,"time_elapsed":141987,"internal_node_id":"0.0-9.1-1.1","responseType":"finish","participantID":"yg3ogmm1l1u7vq5y9cpq7szzzd231hz9","conditionNumber":"unexpected"},{"rt":null,"stimulus":"\u003cp\u003eNow we will show you another configuration of the anagram\u003c/p\u003e","key_press":null,"trial_type":"html-keyboard-response","trial_index":37,"time_elapsed":147988,"internal_node_id":"0.0-9.1-2.1","responseType":"finish","participantID":"yg3ogmm1l1u7vq5y9cpq7szzzd231hz9","conditionNumber":"unexpected"},{"rt":null,"stimulus":"\u003cp\u003e\u003ch1\u003eYHANUTG\u003c/h1\u003e\u003c/p\u003e","key_press":null,"trial_type":"html-keyboard-response","trial_index":38,"time_elapsed":151991,"internal_node_id":"0.0-9.2-0.2","responseType":"finish","participantID":"yg3ogmm1l1u7vq5y9cpq7szzzd231hz9","conditionNumber":"unexpected"},{"rt":2782,"responses":"{\"Q0\":0}","trial_type":"survey-likert","trial_index":39,"time_elapsed":154776,"internal_node_id":"0.0-9.2-1.2","responseType":"finish","participantID":"yg3ogmm1l1u7vq5y9cpq7szzzd231hz9","conditionNumber":"unexpected"},{"rt":null,"stimulus":"\u003cp\u003eNow we will show you another configuration of the anagram\u003c/p\u003e","key_press":null,"trial_type":"html-keyboard-response","trial_index":40,"time_elapsed":160777,"internal_node_id":"0.0-9.2-2.2","responseType":"finish","participantID":"yg3ogmm1l1u7vq5y9cpq7szzzd231hz9","conditionNumber":"unexpected"},{"rt":null,"stimulus":"\u003cp\u003e\u003ch1\u003eNAUHGTY\u003c/h1\u003e\u003c/p\u003e","key_press":null,"trial_type":"html-keyboard-response","trial_index":41,"time_elapsed":164779,"internal_node_id":"0.0-9.3-0.3","responseType":"finish","participantID":"yg3ogmm1l1u7vq5y9cpq7szzzd231hz9","conditionNumber":"unexpected"},{"rt":3022,"responses":"{\"Q0\":6}","trial_type":"survey-likert","trial_index":42,"time_elapsed":167803,"internal_node_id":"0.0-9.3-1.3","responseType":"finish","participantID":"yg3ogmm1l1u7vq5y9cpq7szzzd231hz9","conditionNumber":"unexpected"},{"rt":null,"stimulus":"\u003cp\u003eNow we will show you another configuration of the anagram\u003c/p\u003e","key_press":null,"trial_type":"html-keyboard-response","trial_index":43,"time_elapsed":167806,"internal_node_id":"0.0-9.3-2.3","responseType":"finish","participantID":"yg3ogmm1l1u7vq5y9cpq7szzzd231hz9","conditionNumber":"unexpected"},{"rt":2929,"responses":"{\"Q0\":4}","trial_type":"survey-likert","trial_index":44,"time_elapsed":170735,"internal_node_id":"0.0-10.0","responseType":"finish","participantID":"yg3ogmm1l1u7vq5y9cpq7szzzd231hz9","conditionNumber":"unexpected"}],"__v":0}
{"_id":{"$oid":"5d6dd55128988500046dc73a"},"data":{"responseType":"start","participantID":"f1rehsgbuso45r2ejcmcp5714bwmpt9x","conditionNumber":"expected"},"__v":0}
