{"_id":{"$oid":"5d6ea0ac73b3740004c3f517"},"data":{"responseType":"start","participantID":"a6bjfdo7lahft0urn968fs7zmvnza9al","conditionNumber":"expected"},"__v":0}
{"_id":{"$oid":"5d6ea0b373b3740004c3f518"},"data":{"responseType":"start","participantID":"18rt3mdqm8f3uppeo2c39xgdc81tctho","conditionNumber":"expected"},"__v":0}
{"_id":{"$oid":"5d6ea0b673b3740004c3f519"},"data":{"responseType":"start","participantID":"jvjzonrhvtuylh3c6pgq801zp3m3f5ka","conditionNumber":"expected"},"__v":0}
{"_id":{"$oid":"5d6ea0c473b3740004c3f51a"},"data":{"responseType":"start","participantID":"vtlv2snwod6eznyer1e70oh7tkr6ttg7","conditionNumber":"expected"},"__v":0}
{"_id":{"$oid":"5d6ea0c773b3740004c3f51b"},"data":{"responseType":"start","participantID":"jy8xjopuqffguw9c8l9ft3lypoff28mg","conditionNumber":"unexpected"},"__v":0}
{"_id":{"$oid":"5d6ea0cf73b3740004c3f51c"},"data":{"responseType":"start","participantID":"pk9gf8xaf983cbw3ls52x6egvu6t0pod","conditionNumber":"expected"},"__v":0}
{"_id":{"$oid":"5d6ea0da73b3740004c3f51d"},"data":{"responseType":"start","participantID":"8hy0v465jygbeopubljg46j8ko9b43qd","conditionNumber":"expected"},"__v":0}
{"_id":{"$oid":"5d6ea0de73b3740004c3f51e"},"data":{"responseType":"start","participantID":"zhn8soa5woszwc01owz0fck08011c1gk","conditionNumber":"expected"},"__v":0}
{"_id":{"$oid":"5d6ea0f973b3740004c3f51f"},"data":{"responseType":"start","participantID":"vw2aprb4r2tg398zd9heutlo3wlebc5b","conditionNumber":"unexpected"},"__v":0}
{"_id":{"$oid":"5d6ea11773b3740004c3f520"},"data":{"responseType":"start","participantID":"93ycdh3hjxu6ytjnpsdsagvhm1vqwcdx","conditionNumber":"expected"},"__v":0}
{"_id":{"$oid":"5d6ea12073b3740004c3f521"},"data":{"responseType":"start","participantID":"u0vugb9vyku7j24028msyd0fsptr47nw","conditionNumber":"expected"},"__v":0}
{"_id":{"$oid":"5d6ea12b73b3740004c3f522"},"data":{"responseType":"start","participantID":"p65c8hc6paqrjuynapu494pl2mx51l3e","conditionNumber":"expected"},"__v":0}
{"_id":{"$oid":"5d6ea15c73b3740004c3f523"},"data":{"responseType":"start","participantID":"f4l1stkn913r4slvjnx4fws9fepo8tct","conditionNumber":"unexpected"},"__v":0}
{"_id":{"$oid":"5d6ea19f73b3740004c3f524"},"data":{"responseType":"start","participantID":"rc84qprmzu2dsac25tj8k9o683z8a1pn","conditionNumber":"unexpected"},"__v":0}
{"_id":{"$oid":"5d6ea1a273b3740004c3f525"},"data":[{"rt":6288,"responses":"{\"Q0\":\" I consent to participate \"}","trial_type":"survey-multi-choice","trial_index":0,"time_elapsed":6302,"internal_node_id":"0.0-0.0","responseType":"finish","participantID":"18rt3mdqm8f3uppeo2c39xgdc81tctho","conditionNumber":"expected"},{"trial_type":"call-function","trial_index":1,"time_elapsed":6312,"internal_node_id":"0.0-1.0","responseType":"finish","participantID":"18rt3mdqm8f3uppeo2c39xgdc81tctho","conditionNumber":"expected"},{"rt":5773,"stimulus":"\u003ch1 id=\"welcome\"\u003eWelcome\u003c/h1\u003e\n\u003cp\u003eWelcome to the Experiment! In this experiment, we will give you two \u003cem\u003eanagrams\u003c/em\u003e to solve. An \u003cem\u003eanagram\u003c/em\u003e is simply a word or phrase formed by rearranging the letters of another word or phrase. For example:\u003c/p\u003e\n\u003cul\u003e\n\u003cli\u003e\u003cstrong\u003ePOKER\u003c/strong\u003e is an anagram of \u003cstrong\u003ePKOER\u003c/strong\u003e\u003c/li\u003e\n\u003cli\u003e\u003cstrong\u003ePIKE\u003c/strong\u003e is an anagram of \u003cstrong\u003eKEPI\u003c/strong\u003e\u003c/li\u003e\n\u003c/ul\u003e\n\u003cp\u003eWe kindly request for your full attention for the experiment and ask you to refrain from using Google or other search engines. \u003c/p\u003e\n\u003cp\u003ePlease press the \u003cstrong\u003e'n' key\u003c/strong\u003e to continue once you understand.\u003c/p\u003e","key_press":78,"trial_type":"html-keyboard-response","trial_index":2,"time_elapsed":12090,"internal_node_id":"0.0-2.0","responseType":"finish","participantID":"18rt3mdqm8f3uppeo2c39xgdc81tctho","conditionNumber":"expected"},{"rt":17732,"stimulus":"\u003ch1 id=\"instructions\"\u003eInstructions\u003c/h1\u003e\n\u003cp\u003eWhen you click next, you will be presented with an anagram that will be displayed for 4 seconds. Following that, the \u003cem\u003esame\u003c/em\u003e anagram will be presented to you again in a \u003cem\u003edifferent\u003c/em\u003e configuration for 4 seconds. \u003c/p\u003e\n\u003cp\u003eIn total, we will present the anagram to you in \u003cstrong\u003eseven\u003c/strong\u003e different configurations. If you have not figured the answer to the anagram by then, then at the \u003cstrong\u003eeighth\u003c/strong\u003e time, we will show a much \u003cstrong\u003eeasier\u003c/strong\u003e configuration of that anagram to you. \u003c/p\u003e\n\u003cp\u003eAs an example, you may be presented with random configurations such as: \u003cstrong\u003eONLEM\u003c/strong\u003e, \u003cstrong\u003eMOELN\u003c/strong\u003e, \u003cstrong\u003eNMEOL\u003c/strong\u003e, and finally the easier configuration, \u003cstrong\u003eLMEON\u003c/strong\u003e. Here, these configurations come from the same anagram, LEMON and your goal was figuring out the underlying anagram. \u003c/p\u003e\n\u003cp\u003ePlease press the \u003cstrong\u003e'm' key\u003c/strong\u003e to continue once you understand.\u003c/p\u003e","key_press":77,"trial_type":"html-keyboard-response","trial_index":3,"time_elapsed":29824,"internal_node_id":"0.0-3.0","responseType":"finish","participantID":"18rt3mdqm8f3uppeo2c39xgdc81tctho","conditionNumber":"expected"},{"rt":5078,"stimulus":"\u003ch1 id=\"instructions\"\u003eInstructions\u003c/h1\u003e\n\u003cp\u003eNow, we will present you the first anagram which you have to solve. We will present the anagram to you in \u003cstrong\u003eseven\u003c/strong\u003e different configurations. If you have not figured the answer to the anagram by then, then we will show a much \u003cstrong\u003eeasier\u003c/strong\u003e configuration to you in the \u003cstrong\u003eeighth\u003c/strong\u003e iteration. \u003c/p\u003e\n\u003cp\u003ePlease press the \u003cstrong\u003e'b' key\u003c/strong\u003e to continue.\u003c/p\u003e","key_press":66,"trial_type":"html-keyboard-response","trial_index":4,"time_elapsed":34903,"internal_node_id":"0.0-4.0","responseType":"finish","participantID":"18rt3mdqm8f3uppeo2c39xgdc81tctho","conditionNumber":"expected"},{"rt":7768,"responses":"{\"Q0\":\"7 configurations\"}","trial_type":"survey-multi-choice","trial_index":5,"time_elapsed":42682,"internal_node_id":"0.0-5.0","responseType":"finish","participantID":"18rt3mdqm8f3uppeo2c39xgdc81tctho","conditionNumber":"expected"},{"rt":null,"stimulus":"\u003cp\u003e\u003ch1\u003eHNTYUGA\u003c/h1\u003e\u003c/p\u003e","key_press":null,"trial_type":"html-keyboard-response","trial_index":6,"time_elapsed":46687,"internal_node_id":"0.0-6.0-0.0","responseType":"finish","participantID":"18rt3mdqm8f3uppeo2c39xgdc81tctho","conditionNumber":"expected"},{"rt":3093,"responses":"{\"Q0\":1}","trial_type":"survey-likert","trial_index":7,"time_elapsed":49786,"internal_node_id":"0.0-6.0-1.0","responseType":"finish","participantID":"18rt3mdqm8f3uppeo2c39xgdc81tctho","conditionNumber":"expected"},{"rt":null,"stimulus":"\u003cp\u003eNow we will show you another configuration of the anagram \u003cbr\u003e\u003cbr\u003e\u003ccenter\u003e6 more to go\u003c/center\u003e\u003c/p\u003e","key_press":null,"trial_type":"html-keyboard-response","trial_index":8,"time_elapsed":55792,"internal_node_id":"0.0-6.0-2.0","responseType":"finish","participantID":"18rt3mdqm8f3uppeo2c39xgdc81tctho","conditionNumber":"expected"},{"rt":null,"stimulus":"\u003cp\u003e\u003ch1\u003eUHNGYAT\u003c/h1\u003e\u003c/p\u003e","key_press":null,"trial_type":"html-keyboard-response","trial_index":9,"time_elapsed":59798,"internal_node_id":"0.0-6.1-0.1","responseType":"finish","participantID":"18rt3mdqm8f3uppeo2c39xgdc81tctho","conditionNumber":"expected"},{"rt":2295,"responses":"{\"Q0\":9}","trial_type":"survey-likert","trial_index":10,"time_elapsed":62098,"internal_node_id":"0.0-6.1-1.1","responseType":"finish","participantID":"18rt3mdqm8f3uppeo2c39xgdc81tctho","conditionNumber":"expected"},{"rt":null,"stimulus":"\u003cp\u003eNow we will show you another configuration of the anagram \u003cbr\u003e\u003cbr\u003e\u003ccenter\u003e5 more to go\u003c/center\u003e\u003c/p\u003e","key_press":null,"trial_type":"html-keyboard-response","trial_index":11,"time_elapsed":68103,"internal_node_id":"0.0-6.1-2.1","responseType":"finish","participantID":"18rt3mdqm8f3uppeo2c39xgdc81tctho","conditionNumber":"expected"},{"rt":null,"stimulus":"\u003cp\u003e\u003ch1\u003eYHANUTG\u003c/h1\u003e\u003c/p\u003e","key_press":null,"trial_type":"html-keyboard-response","trial_index":12,"time_elapsed":72106,"internal_node_id":"0.0-6.2-0.2","responseType":"finish","participantID":"18rt3mdqm8f3uppeo2c39xgdc81tctho","conditionNumber":"expected"},{"rt":1985,"responses":"{\"Q0\":9}","trial_type":"survey-likert","trial_index":13,"time_elapsed":74093,"internal_node_id":"0.0-6.2-1.2","responseType":"finish","participantID":"18rt3mdqm8f3uppeo2c39xgdc81tctho","conditionNumber":"expected"},{"rt":null,"stimulus":"\u003cp\u003eNow we will show you another configuration of the anagram \u003cbr\u003e\u003cbr\u003e\u003ccenter\u003e4 more to go\u003c/center\u003e\u003c/p\u003e","key_press":null,"trial_type":"html-keyboard-response","trial_index":14,"time_elapsed":80099,"internal_node_id":"0.0-6.2-2.2","responseType":"finish","participantID":"18rt3mdqm8f3uppeo2c39xgdc81tctho","conditionNumber":"expected"},{"rt":null,"stimulus":"\u003cp\u003e\u003ch1\u003eATGNYHU\u003c/h1\u003e\u003c/p\u003e","key_press":null,"trial_type":"html-keyboard-response","trial_index":15,"time_elapsed":84103,"internal_node_id":"0.0-6.3-0.3","responseType":"finish","participantID":"18rt3mdqm8f3uppeo2c39xgdc81tctho","conditionNumber":"expected"},{"rt":1922,"responses":"{\"Q0\":9}","trial_type":"survey-likert","trial_index":16,"time_elapsed":86031,"internal_node_id":"0.0-6.3-1.3","responseType":"finish","participantID":"18rt3mdqm8f3uppeo2c39xgdc81tctho","conditionNumber":"expected"},{"rt":null,"stimulus":"\u003cp\u003eNow we will show you another configuration of the anagram \u003cbr\u003e\u003cbr\u003e\u003ccenter\u003e3 more to go\u003c/center\u003e\u003c/p\u003e","key_press":null,"trial_type":"html-keyboard-response","trial_index":17,"time_elapsed":92035,"internal_node_id":"0.0-6.3-2.3","responseType":"finish","participantID":"18rt3mdqm8f3uppeo2c39xgdc81tctho","conditionNumber":"expected"},{"rt":null,"stimulus":"\u003cp\u003e\u003ch1\u003eGANYTHU\u003c/h1\u003e\u003c/p\u003e","key_press":null,"trial_type":"html-keyboard-response","trial_index":18,"time_elapsed":96038,"internal_node_id":"0.0-6.4-0.4","responseType":"finish","participantID":"18rt3mdqm8f3uppeo2c39xgdc81tctho","conditionNumber":"expected"},{"rt":2536,"responses":"{\"Q0\":9}","trial_type":"survey-likert","trial_index":19,"time_elapsed":98578,"internal_node_id":"0.0-6.4-1.4","responseType":"finish","participantID":"18rt3mdqm8f3uppeo2c39xgdc81tctho","conditionNumber":"expected"},{"rt":null,"stimulus":"\u003cp\u003eNow we will show you another configuration of the anagram \u003cbr\u003e\u003cbr\u003e\u003ccenter\u003e2 more to go\u003c/center\u003e\u003c/p\u003e","key_press":null,"trial_type":"html-keyboard-response","trial_index":20,"time_elapsed":104583,"internal_node_id":"0.0-6.4-2.4","responseType":"finish","participantID":"18rt3mdqm8f3uppeo2c39xgdc81tctho","conditionNumber":"expected"},{"rt":null,"stimulus":"\u003cp\u003e\u003ch1\u003eTHANYGU\u003c/h1\u003e\u003c/p\u003e","key_press":null,"trial_type":"html-keyboard-response","trial_index":21,"time_elapsed":108588,"internal_node_id":"0.0-6.5-0.5","responseType":"finish","participantID":"18rt3mdqm8f3uppeo2c39xgdc81tctho","conditionNumber":"expected"},{"rt":2286,"responses":"{\"Q0\":9}","trial_type":"survey-likert","trial_index":22,"time_elapsed":110878,"internal_node_id":"0.0-6.5-1.5","responseType":"finish","participantID":"18rt3mdqm8f3uppeo2c39xgdc81tctho","conditionNumber":"expected"},{"rt":null,"stimulus":"\u003cp\u003eNow we will show you another configuration of the anagram \u003cbr\u003e\u003cbr\u003e\u003ccenter\u003e1 more to go\u003c/center\u003e\u003c/p\u003e","key_press":null,"trial_type":"html-keyboard-response","trial_index":23,"time_elapsed":116884,"internal_node_id":"0.0-6.5-2.5","responseType":"finish","participantID":"18rt3mdqm8f3uppeo2c39xgdc81tctho","conditionNumber":"expected"},{"rt":null,"stimulus":"\u003cp\u003e\u003ch1\u003eAGNYUTH\u003c/h1\u003e\u003c/p\u003e","key_press":null,"trial_type":"html-keyboard-response","trial_index":24,"time_elapsed":120887,"internal_node_id":"0.0-6.6-0.6","responseType":"finish","participantID":"18rt3mdqm8f3uppeo2c39xgdc81tctho","conditionNumber":"expected"},{"rt":2150,"responses":"{\"Q0\":9}","trial_type":"survey-likert","trial_index":25,"time_elapsed":123041,"internal_node_id":"0.0-6.6-1.6","responseType":"finish","participantID":"18rt3mdqm8f3uppeo2c39xgdc81tctho","conditionNumber":"expected"},{"rt":null,"stimulus":"\u003cp\u003eWe will now show you a much \u003cb\u003eeasier\u003c/b\u003e configuration of this anagram\u003c/p\u003e","key_press":null,"trial_type":"html-keyboard-response","trial_index":26,"time_elapsed":129045,"internal_node_id":"0.0-6.6-2.6","responseType":"finish","participantID":"18rt3mdqm8f3uppeo2c39xgdc81tctho","conditionNumber":"expected"},{"rt":null,"stimulus":"\u003cp\u003e\u003ch1\u003eNAUGHYT\u003c/h1\u003e\u003c/p\u003e","key_press":null,"trial_type":"html-keyboard-response","trial_index":27,"time_elapsed":133050,"internal_node_id":"0.0-6.7-0.7","responseType":"finish","participantID":"18rt3mdqm8f3uppeo2c39xgdc81tctho","conditionNumber":"expected"},{"rt":2333,"responses":"{\"Q0\":9}","trial_type":"survey-likert","trial_index":28,"time_elapsed":135387,"internal_node_id":"0.0-6.7-1.7","responseType":"finish","participantID":"18rt3mdqm8f3uppeo2c39xgdc81tctho","conditionNumber":"expected"},{"rt":null,"stimulus":"\u003cp\u003eNow we will show you another configuration of the anagram \u003cbr\u003e\u003cbr\u003e\u003ccenter\u003e-1 more to go\u003c/center\u003e\u003c/p\u003e","key_press":null,"trial_type":"html-keyboard-response","trial_index":29,"time_elapsed":135393,"internal_node_id":"0.0-6.7-2.7","responseType":"finish","participantID":"18rt3mdqm8f3uppeo2c39xgdc81tctho","conditionNumber":"expected"},{"rt":8355,"responses":"{\"Q0\":0}","trial_type":"survey-likert","trial_index":30,"time_elapsed":143751,"internal_node_id":"0.0-7.0","responseType":"finish","participantID":"18rt3mdqm8f3uppeo2c39xgdc81tctho","conditionNumber":"expected"},{"rt":4886,"stimulus":"\u003ch1 id=\"instructions\"\u003eInstructions\u003c/h1\u003e\n\u003cp\u003eThank you for your attention so far. Now, you will be presented with the second anagram which you have to solve. \u003c/p\u003e\n\u003cp\u003eWe will again present the anagram to you in \u003cstrong\u003eseven\u003c/strong\u003e different configurations. If you have not figured the answer to the anagram by then, then at the \u003cstrong\u003eeighth\u003c/strong\u003e time, we will show a much \u003cstrong\u003eeasier\u003c/strong\u003e configuration of that anagram to you. \u003c/p\u003e\n\u003cp\u003ePlease press the \u003cstrong\u003e'g' key\u003c/strong\u003e to continue once you understand.\u003c/p\u003e","key_press":71,"trial_type":"html-keyboard-response","trial_index":31,"time_elapsed":148640,"internal_node_id":"0.0-8.0","responseType":"finish","participantID":"18rt3mdqm8f3uppeo2c39xgdc81tctho","conditionNumber":"expected"},{"rt":null,"stimulus":"\u003cp\u003e\u003ch1\u003eYKLAAWJ\u003c/h1\u003e\u003c/p\u003e","key_press":null,"trial_type":"html-keyboard-response","trial_index":32,"time_elapsed":152643,"internal_node_id":"0.0-9.0-0.0","responseType":"finish","participantID":"18rt3mdqm8f3uppeo2c39xgdc81tctho","conditionNumber":"expected"},{"rt":1911,"responses":"{\"Q0\":0}","trial_type":"survey-likert","trial_index":33,"time_elapsed":154556,"internal_node_id":"0.0-9.0-1.0","responseType":"finish","participantID":"18rt3mdqm8f3uppeo2c39xgdc81tctho","conditionNumber":"expected"},{"rt":null,"stimulus":"\u003cp\u003eNow we will show you another configuration of the anagram \u003cbr\u003e\u003cbr\u003e\u003ccenter\u003e6 more to go\u003c/center\u003e\u003c/p\u003e","key_press":null,"trial_type":"html-keyboard-response","trial_index":34,"time_elapsed":160560,"internal_node_id":"0.0-9.0-2.0","responseType":"finish","participantID":"18rt3mdqm8f3uppeo2c39xgdc81tctho","conditionNumber":"expected"},{"rt":null,"stimulus":"\u003cp\u003e\u003ch1\u003eKWJAALY\u003c/h1\u003e\u003c/p\u003e","key_press":null,"trial_type":"html-keyboard-response","trial_index":35,"time_elapsed":164563,"internal_node_id":"0.0-9.1-0.1","responseType":"finish","participantID":"18rt3mdqm8f3uppeo2c39xgdc81tctho","conditionNumber":"expected"},{"rt":2191,"responses":"{\"Q0\":0}","trial_type":"survey-likert","trial_index":36,"time_elapsed":166758,"internal_node_id":"0.0-9.1-1.1","responseType":"finish","participantID":"18rt3mdqm8f3uppeo2c39xgdc81tctho","conditionNumber":"expected"},{"rt":null,"stimulus":"\u003cp\u003eNow we will show you another configuration of the anagram \u003cbr\u003e\u003cbr\u003e\u003ccenter\u003e5 more to go\u003c/center\u003e\u003c/p\u003e","key_press":null,"trial_type":"html-keyboard-response","trial_index":37,"time_elapsed":172762,"internal_node_id":"0.0-9.1-2.1","responseType":"finish","participantID":"18rt3mdqm8f3uppeo2c39xgdc81tctho","conditionNumber":"expected"},{"rt":null,"stimulus":"\u003cp\u003e\u003ch1\u003eLKAWYAJ\u003c/h1\u003e\u003c/p\u003e","key_press":null,"trial_type":"html-keyboard-response","trial_index":38,"time_elapsed":176765,"internal_node_id":"0.0-9.2-0.2","responseType":"finish","participantID":"18rt3mdqm8f3uppeo2c39xgdc81tctho","conditionNumber":"expected"},{"rt":2486,"responses":"{\"Q0\":9}","trial_type":"survey-likert","trial_index":39,"time_elapsed":179256,"internal_node_id":"0.0-9.2-1.2","responseType":"finish","participantID":"18rt3mdqm8f3uppeo2c39xgdc81tctho","conditionNumber":"expected"},{"rt":null,"stimulus":"\u003cp\u003eNow we will show you another configuration of the anagram \u003cbr\u003e\u003cbr\u003e\u003ccenter\u003e4 more to go\u003c/center\u003e\u003c/p\u003e","key_press":null,"trial_type":"html-keyboard-response","trial_index":40,"time_elapsed":185260,"internal_node_id":"0.0-9.2-2.2","responseType":"finish","participantID":"18rt3mdqm8f3uppeo2c39xgdc81tctho","conditionNumber":"expected"},{"rt":null,"stimulus":"\u003cp\u003e\u003ch1\u003eAWYJLKA\u003c/h1\u003e\u003c/p\u003e","key_press":null,"trial_type":"html-keyboard-response","trial_index":41,"time_elapsed":189265,"internal_node_id":"0.0-9.3-0.3","responseType":"finish","participantID":"18rt3mdqm8f3uppeo2c39xgdc81tctho","conditionNumber":"expected"},{"rt":2451,"responses":"{\"Q0\":9}","trial_type":"survey-likert","trial_index":42,"time_elapsed":191720,"internal_node_id":"0.0-9.3-1.3","responseType":"finish","participantID":"18rt3mdqm8f3uppeo2c39xgdc81tctho","conditionNumber":"expected"},{"rt":null,"stimulus":"\u003cp\u003eNow we will show you another configuration of the anagram \u003cbr\u003e\u003cbr\u003e\u003ccenter\u003e3 more to go\u003c/center\u003e\u003c/p\u003e","key_press":null,"trial_type":"html-keyboard-response","trial_index":43,"time_elapsed":197725,"internal_node_id":"0.0-9.3-2.3","responseType":"finish","participantID":"18rt3mdqm8f3uppeo2c39xgdc81tctho","conditionNumber":"expected"},{"rt":null,"stimulus":"\u003cp\u003e\u003ch1\u003eWKLAYJA\u003c/h1\u003e\u003c/p\u003e","key_press":null,"trial_type":"html-keyboard-response","trial_index":44,"time_elapsed":201728,"internal_node_id":"0.0-9.4-0.4","responseType":"finish","participantID":"18rt3mdqm8f3uppeo2c39xgdc81tctho","conditionNumber":"expected"},{"rt":1602,"responses":"{\"Q0\":9}","trial_type":"survey-likert","trial_index":45,"time_elapsed":203333,"internal_node_id":"0.0-9.4-1.4","responseType":"finish","participantID":"18rt3mdqm8f3uppeo2c39xgdc81tctho","conditionNumber":"expected"},{"rt":null,"stimulus":"\u003cp\u003eNow we will show you another configuration of the anagram \u003cbr\u003e\u003cbr\u003e\u003ccenter\u003e2 more to go\u003c/center\u003e\u003c/p\u003e","key_press":null,"trial_type":"html-keyboard-response","trial_index":46,"time_elapsed":209338,"internal_node_id":"0.0-9.4-2.4","responseType":"finish","participantID":"18rt3mdqm8f3uppeo2c39xgdc81tctho","conditionNumber":"expected"},{"rt":null,"stimulus":"\u003cp\u003e\u003ch1\u003eLAAKWJY\u003c/h1\u003e\u003c/p\u003e","key_press":null,"trial_type":"html-keyboard-response","trial_index":47,"time_elapsed":213342,"internal_node_id":"0.0-9.5-0.5","responseType":"finish","participantID":"18rt3mdqm8f3uppeo2c39xgdc81tctho","conditionNumber":"expected"},{"rt":2067,"responses":"{\"Q0\":9}","trial_type":"survey-likert","trial_index":48,"time_elapsed":215413,"internal_node_id":"0.0-9.5-1.5","responseType":"finish","participantID":"18rt3mdqm8f3uppeo2c39xgdc81tctho","conditionNumber":"expected"},{"rt":null,"stimulus":"\u003cp\u003eNow we will show you another configuration of the anagram \u003cbr\u003e\u003cbr\u003e\u003ccenter\u003e1 more to go\u003c/center\u003e\u003c/p\u003e","key_press":null,"trial_type":"html-keyboard-response","trial_index":49,"time_elapsed":221439,"internal_node_id":"0.0-9.5-2.5","responseType":"finish","participantID":"18rt3mdqm8f3uppeo2c39xgdc81tctho","conditionNumber":"expected"},{"rt":null,"stimulus":"\u003cp\u003e\u003ch1\u003eWJYAKAL\u003c/h1\u003e\u003c/p\u003e","key_press":null,"trial_type":"html-keyboard-response","trial_index":50,"time_elapsed":225443,"internal_node_id":"0.0-9.6-0.6","responseType":"finish","participantID":"18rt3mdqm8f3uppeo2c39xgdc81tctho","conditionNumber":"expected"},{"rt":2225,"responses":"{\"Q0\":9}","trial_type":"survey-likert","trial_index":51,"time_elapsed":227672,"internal_node_id":"0.0-9.6-1.6","responseType":"finish","participantID":"18rt3mdqm8f3uppeo2c39xgdc81tctho","conditionNumber":"expected"},{"rt":null,"stimulus":"\u003cp\u003eWe will now show you a much \u003cb\u003eeasier\u003c/b\u003e configuration of this anagram\u003c/p\u003e","key_press":null,"trial_type":"html-keyboard-response","trial_index":52,"time_elapsed":233676,"internal_node_id":"0.0-9.6-2.6","responseType":"finish","participantID":"18rt3mdqm8f3uppeo2c39xgdc81tctho","conditionNumber":"expected"},{"rt":null,"stimulus":"\u003cp\u003e\u003ch1\u003eJAWYALK\u003c/h1\u003e\u003c/p\u003e","key_press":null,"trial_type":"html-keyboard-response","trial_index":53,"time_elapsed":237679,"internal_node_id":"0.0-9.7-0.7","responseType":"finish","participantID":"18rt3mdqm8f3uppeo2c39xgdc81tctho","conditionNumber":"expected"},{"rt":3508,"responses":"{\"Q0\":9}","trial_type":"survey-likert","trial_index":54,"time_elapsed":241191,"internal_node_id":"0.0-9.7-1.7","responseType":"finish","participantID":"18rt3mdqm8f3uppeo2c39xgdc81tctho","conditionNumber":"expected"},{"rt":null,"stimulus":"\u003cp\u003eNow we will show you another configuration of the anagram \u003cbr\u003e\u003cbr\u003e\u003ccenter\u003e-1 more to go\u003c/center\u003e\u003c/p\u003e","key_press":null,"trial_type":"html-keyboard-response","trial_index":55,"time_elapsed":241196,"internal_node_id":"0.0-9.7-2.7","responseType":"finish","participantID":"18rt3mdqm8f3uppeo2c39xgdc81tctho","conditionNumber":"expected"},{"rt":3613,"responses":"{\"Q0\":0}","trial_type":"survey-likert","trial_index":56,"time_elapsed":244812,"internal_node_id":"0.0-10.0","responseType":"finish","participantID":"18rt3mdqm8f3uppeo2c39xgdc81tctho","conditionNumber":"expected"}],"__v":0}
{"_id":{"$oid":"5d6ea1a973b3740004c3f526"},"data":{"responseType":"start","participantID":"117effkegpext15k6h7hxk71q53m88l2","conditionNumber":"expected"},"__v":0}
{"_id":{"$oid":"5d6ea1bf73b3740004c3f527"},"data":[{"rt":3550,"responses":"{\"Q0\":\" I consent to participate \"}","trial_type":"survey-multi-choice","trial_index":0,"time_elapsed":3556,"internal_node_id":"0.0-0.0","responseType":"finish","participantID":"vw2aprb4r2tg398zd9heutlo3wlebc5b","conditionNumber":"unexpected"},{"trial_type":"call-function","trial_index":1,"time_elapsed":3563,"internal_node_id":"0.0-1.0","responseType":"finish","participantID":"vw2aprb4r2tg398zd9heutlo3wlebc5b","conditionNumber":"unexpected"},{"rt":7813,"stimulus":"\u003ch1 id=\"welcome\"\u003eWelcome\u003c/h1\u003e\n\u003cp\u003eWelcome to the Experiment! In this experiment, we will give you two \u003cem\u003eanagrams\u003c/em\u003e to solve. An \u003cem\u003eanagram\u003c/em\u003e is simply a word or phrase formed by rearranging the letters of another word or phrase. For example:\u003c/p\u003e\n\u003cul\u003e\n\u003cli\u003e\u003cstrong\u003ePOKER\u003c/strong\u003e is an anagram of \u003cstrong\u003ePKOER\u003c/strong\u003e\u003c/li\u003e\n\u003cli\u003e\u003cstrong\u003ePIKE\u003c/strong\u003e is an anagram of \u003cstrong\u003eKEPI\u003c/strong\u003e\u003c/li\u003e\n\u003c/ul\u003e\n\u003cp\u003eWe kindly request for your full attention for the experiment and ask you to refrain from using Google or other search engines. \u003c/p\u003e\n\u003cp\u003ePlease press the \u003cstrong\u003e'n' key\u003c/strong\u003e to continue once you understand.\u003c/p\u003e","key_press":78,"trial_type":"html-keyboard-response","trial_index":2,"time_elapsed":11377,"internal_node_id":"0.0-2.0","responseType":"finish","participantID":"vw2aprb4r2tg398zd9heutlo3wlebc5b","conditionNumber":"unexpected"},{"rt":15079,"stimulus":"\u003ch1 id=\"instructions\"\u003eInstructions\u003c/h1\u003e\n\u003cp\u003eWhen you click next, you will be presented with an anagram that will be displayed for 4 seconds. Following that, the \u003cem\u003esame\u003c/em\u003e anagram will be presented to you again in a \u003cem\u003edifferent\u003c/em\u003e configuration for 4 seconds. \u003c/p\u003e\n\u003cp\u003eIn total, we will present the anagram to you in \u003cstrong\u003eseven\u003c/strong\u003e different configurations. If you have not figured the answer to the anagram by then, then at the \u003cstrong\u003eeighth\u003c/strong\u003e time, we will show a much \u003cstrong\u003eeasier\u003c/strong\u003e configuration of that anagram to you. \u003c/p\u003e\n\u003cp\u003eAs an example, you may be presented with random configurations such as: \u003cstrong\u003eONLEM\u003c/strong\u003e, \u003cstrong\u003eMOELN\u003c/strong\u003e, \u003cstrong\u003eNMEOL\u003c/strong\u003e, and finally the easier configuration, \u003cstrong\u003eLMEON\u003c/strong\u003e. Here, these configurations come from the same anagram, LEMON and your goal was figuring out the underlying anagram. \u003c/p\u003e\n\u003cp\u003ePlease press the \u003cstrong\u003e'm' key\u003c/strong\u003e to continue once you understand.\u003c/p\u003e","key_press":77,"trial_type":"html-keyboard-response","trial_index":3,"time_elapsed":26457,"internal_node_id":"0.0-3.0","responseType":"finish","participantID":"vw2aprb4r2tg398zd9heutlo3wlebc5b","conditionNumber":"unexpected"},{"rt":4783,"stimulus":"\u003ch1 id=\"instructions\"\u003eInstructions\u003c/h1\u003e\n\u003cp\u003eNow, we will present you the first anagram which you have to solve. We will present the anagram to you in \u003cstrong\u003eseven\u003c/strong\u003e different configurations. If you have not figured the answer to the anagram by then, then we will show a much \u003cstrong\u003eeasier\u003c/strong\u003e configuration to you in the \u003cstrong\u003eeighth\u003c/strong\u003e iteration. \u003c/p\u003e\n\u003cp\u003ePlease press the \u003cstrong\u003e'b' key\u003c/strong\u003e to continue.\u003c/p\u003e","key_press":66,"trial_type":"html-keyboard-response","trial_index":4,"time_elapsed":31241,"internal_node_id":"0.0-4.0","responseType":"finish","participantID":"vw2aprb4r2tg398zd9heutlo3wlebc5b","conditionNumber":"unexpected"},{"rt":7575,"responses":"{\"Q0\":\"7 configurations\"}","trial_type":"survey-multi-choice","trial_index":5,"time_elapsed":38819,"internal_node_id":"0.0-5.0","responseType":"finish","participantID":"vw2aprb4r2tg398zd9heutlo3wlebc5b","conditionNumber":"unexpected"},{"rt":null,"stimulus":"\u003cp\u003e\u003ch1\u003eHNTYUGA\u003c/h1\u003e\u003c/p\u003e","key_press":null,"trial_type":"html-keyboard-response","trial_index":6,"time_elapsed":42823,"internal_node_id":"0.0-6.0-0.0","responseType":"finish","participantID":"vw2aprb4r2tg398zd9heutlo3wlebc5b","conditionNumber":"unexpected"},{"rt":9265,"responses":"{\"Q0\":7}","trial_type":"survey-likert","trial_index":7,"time_elapsed":52092,"internal_node_id":"0.0-6.0-1.0","responseType":"finish","participantID":"vw2aprb4r2tg398zd9heutlo3wlebc5b","conditionNumber":"unexpected"},{"rt":null,"stimulus":"\u003cp\u003eNow we will show you another configuration of the anagram \u003cbr\u003e\u003cbr\u003e\u003ccenter\u003e6 more to go\u003c/center\u003e\u003c/p\u003e","key_press":null,"trial_type":"html-keyboard-response","trial_index":8,"time_elapsed":58093,"internal_node_id":"0.0-6.0-2.0","responseType":"finish","participantID":"vw2aprb4r2tg398zd9heutlo3wlebc5b","conditionNumber":"unexpected"},{"rt":null,"stimulus":"\u003cp\u003e\u003ch1\u003eUHNGYAT\u003c/h1\u003e\u003c/p\u003e","key_press":null,"trial_type":"html-keyboard-response","trial_index":9,"time_elapsed":62095,"internal_node_id":"0.0-6.1-0.1","responseType":"finish","participantID":"vw2aprb4r2tg398zd9heutlo3wlebc5b","conditionNumber":"unexpected"},{"rt":3442,"responses":"{\"Q0\":9}","trial_type":"survey-likert","trial_index":10,"time_elapsed":65539,"internal_node_id":"0.0-6.1-1.1","responseType":"finish","participantID":"vw2aprb4r2tg398zd9heutlo3wlebc5b","conditionNumber":"unexpected"},{"rt":null,"stimulus":"\u003cp\u003eNow we will show you another configuration of the anagram \u003cbr\u003e\u003cbr\u003e\u003ccenter\u003e5 more to go\u003c/center\u003e\u003c/p\u003e","key_press":null,"trial_type":"html-keyboard-response","trial_index":11,"time_elapsed":71541,"internal_node_id":"0.0-6.1-2.1","responseType":"finish","participantID":"vw2aprb4r2tg398zd9heutlo3wlebc5b","conditionNumber":"unexpected"},{"rt":null,"stimulus":"\u003cp\u003e\u003ch1\u003eYHANUTG\u003c/h1\u003e\u003c/p\u003e","key_press":null,"trial_type":"html-keyboard-response","trial_index":12,"time_elapsed":75542,"internal_node_id":"0.0-6.2-0.2","responseType":"finish","participantID":"vw2aprb4r2tg398zd9heutlo3wlebc5b","conditionNumber":"unexpected"},{"rt":3147,"responses":"{\"Q0\":9}","trial_type":"survey-likert","trial_index":13,"time_elapsed":78691,"internal_node_id":"0.0-6.2-1.2","responseType":"finish","participantID":"vw2aprb4r2tg398zd9heutlo3wlebc5b","conditionNumber":"unexpected"},{"rt":null,"stimulus":"\u003cp\u003eNow we will show you another configuration of the anagram \u003cbr\u003e\u003cbr\u003e\u003ccenter\u003e4 more to go\u003c/center\u003e\u003c/p\u003e","key_press":null,"trial_type":"html-keyboard-response","trial_index":14,"time_elapsed":84693,"internal_node_id":"0.0-6.2-2.2","responseType":"finish","participantID":"vw2aprb4r2tg398zd9heutlo3wlebc5b","conditionNumber":"unexpected"},{"rt":null,"stimulus":"\u003cp\u003e\u003ch1\u003eATGNYHU\u003c/h1\u003e\u003c/p\u003e","key_press":null,"trial_type":"html-keyboard-response","trial_index":15,"time_elapsed":88695,"internal_node_id":"0.0-6.3-0.3","responseType":"finish","participantID":"vw2aprb4r2tg398zd9heutlo3wlebc5b","conditionNumber":"unexpected"},{"rt":2690,"responses":"{\"Q0\":9}","trial_type":"survey-likert","trial_index":16,"time_elapsed":91387,"internal_node_id":"0.0-6.3-1.3","responseType":"finish","participantID":"vw2aprb4r2tg398zd9heutlo3wlebc5b","conditionNumber":"unexpected"},{"rt":null,"stimulus":"\u003cp\u003eNow we will show you another configuration of the anagram \u003cbr\u003e\u003cbr\u003e\u003ccenter\u003e3 more to go\u003c/center\u003e\u003c/p\u003e","key_press":null,"trial_type":"html-keyboard-response","trial_index":17,"time_elapsed":97389,"internal_node_id":"0.0-6.3-2.3","responseType":"finish","participantID":"vw2aprb4r2tg398zd9heutlo3wlebc5b","conditionNumber":"unexpected"},{"rt":null,"stimulus":"\u003cp\u003e\u003ch1\u003eGANYTHU\u003c/h1\u003e\u003c/p\u003e","key_press":null,"trial_type":"html-keyboard-response","trial_index":18,"time_elapsed":101390,"internal_node_id":"0.0-6.4-0.4","responseType":"finish","participantID":"vw2aprb4r2tg398zd9heutlo3wlebc5b","conditionNumber":"unexpected"},{"rt":2571,"responses":"{\"Q0\":9}","trial_type":"survey-likert","trial_index":19,"time_elapsed":103963,"internal_node_id":"0.0-6.4-1.4","responseType":"finish","participantID":"vw2aprb4r2tg398zd9heutlo3wlebc5b","conditionNumber":"unexpected"},{"rt":null,"stimulus":"\u003cp\u003eNow we will show you another configuration of the anagram \u003cbr\u003e\u003cbr\u003e\u003ccenter\u003e2 more to go\u003c/center\u003e\u003c/p\u003e","key_press":null,"trial_type":"html-keyboard-response","trial_index":20,"time_elapsed":109965,"internal_node_id":"0.0-6.4-2.4","responseType":"finish","participantID":"vw2aprb4r2tg398zd9heutlo3wlebc5b","conditionNumber":"unexpected"},{"rt":null,"stimulus":"\u003cp\u003e\u003ch1\u003eTHANYGU\u003c/h1\u003e\u003c/p\u003e","key_press":null,"trial_type":"html-keyboard-response","trial_index":21,"time_elapsed":113967,"internal_node_id":"0.0-6.5-0.5","responseType":"finish","participantID":"vw2aprb4r2tg398zd9heutlo3wlebc5b","conditionNumber":"unexpected"},{"rt":2394,"responses":"{\"Q0\":9}","trial_type":"survey-likert","trial_index":22,"time_elapsed":116363,"internal_node_id":"0.0-6.5-1.5","responseType":"finish","participantID":"vw2aprb4r2tg398zd9heutlo3wlebc5b","conditionNumber":"unexpected"},{"rt":null,"stimulus":"\u003cp\u003eNow we will show you another configuration of the anagram \u003cbr\u003e\u003cbr\u003e\u003ccenter\u003e1 more to go\u003c/center\u003e\u003c/p\u003e","key_press":null,"trial_type":"html-keyboard-response","trial_index":23,"time_elapsed":122365,"internal_node_id":"0.0-6.5-2.5","responseType":"finish","participantID":"vw2aprb4r2tg398zd9heutlo3wlebc5b","conditionNumber":"unexpected"},{"rt":null,"stimulus":"\u003cp\u003e\u003ch1\u003eAGNYUTH\u003c/h1\u003e\u003c/p\u003e","key_press":null,"trial_type":"html-keyboard-response","trial_index":24,"time_elapsed":126366,"internal_node_id":"0.0-6.6-0.6","responseType":"finish","participantID":"vw2aprb4r2tg398zd9heutlo3wlebc5b","conditionNumber":"unexpected"},{"rt":2739,"responses":"{\"Q0\":9}","trial_type":"survey-likert","trial_index":25,"time_elapsed":129107,"internal_node_id":"0.0-6.6-1.6","responseType":"finish","participantID":"vw2aprb4r2tg398zd9heutlo3wlebc5b","conditionNumber":"unexpected"},{"rt":null,"stimulus":"\u003cp\u003eWe will now show you a much \u003cb\u003eeasier\u003c/b\u003e configuration of this anagram\u003c/p\u003e","key_press":null,"trial_type":"html-keyboard-response","trial_index":26,"time_elapsed":135108,"internal_node_id":"0.0-6.6-2.6","responseType":"finish","participantID":"vw2aprb4r2tg398zd9heutlo3wlebc5b","conditionNumber":"unexpected"},{"rt":null,"stimulus":"\u003cp\u003e\u003ch1\u003eNAUGHYT\u003c/h1\u003e\u003c/p\u003e","key_press":null,"trial_type":"html-keyboard-response","trial_index":27,"time_elapsed":139109,"internal_node_id":"0.0-6.7-0.7","responseType":"finish","participantID":"vw2aprb4r2tg398zd9heutlo3wlebc5b","conditionNumber":"unexpected"},{"rt":2124,"responses":"{\"Q0\":9}","trial_type":"survey-likert","trial_index":28,"time_elapsed":141235,"internal_node_id":"0.0-6.7-1.7","responseType":"finish","participantID":"vw2aprb4r2tg398zd9heutlo3wlebc5b","conditionNumber":"unexpected"},{"rt":null,"stimulus":"\u003cp\u003eNow we will show you another configuration of the anagram \u003cbr\u003e\u003cbr\u003e\u003ccenter\u003e-1 more to go\u003c/center\u003e\u003c/p\u003e","key_press":null,"trial_type":"html-keyboard-response","trial_index":29,"time_elapsed":141238,"internal_node_id":"0.0-6.7-2.7","responseType":"finish","participantID":"vw2aprb4r2tg398zd9heutlo3wlebc5b","conditionNumber":"unexpected"},{"rt":11195,"responses":"{\"Q0\":1}","trial_type":"survey-likert","trial_index":30,"time_elapsed":152435,"internal_node_id":"0.0-7.0","responseType":"finish","participantID":"vw2aprb4r2tg398zd9heutlo3wlebc5b","conditionNumber":"unexpected"},{"rt":8791,"stimulus":"\u003ch1 id=\"instructions\"\u003eInstructions\u003c/h1\u003e\n\u003cp\u003eThank you for your attention so far. Now, you will be presented with the second anagram which you have to solve. \u003c/p\u003e\n\u003cp\u003eWe will again present the anagram to you in \u003cstrong\u003eseven\u003c/strong\u003e different configurations. If you have not figured the answer to the anagram by then, then at the \u003cstrong\u003eeighth\u003c/strong\u003e time, we will show a much \u003cstrong\u003eeasier\u003c/strong\u003e configuration of that anagram to you. \u003c/p\u003e\n\u003cp\u003ePlease press the \u003cstrong\u003e'g' key\u003c/strong\u003e to continue once you understand.\u003c/p\u003e","key_press":71,"trial_type":"html-keyboard-response","trial_index":31,"time_elapsed":161227,"internal_node_id":"0.0-8.0","responseType":"finish","participantID":"vw2aprb4r2tg398zd9heutlo3wlebc5b","conditionNumber":"unexpected"},{"rt":null,"stimulus":"\u003cp\u003e\u003ch1\u003eYKLAAWJ\u003c/h1\u003e\u003c/p\u003e","key_press":null,"trial_type":"html-keyboard-response","trial_index":32,"time_elapsed":165229,"internal_node_id":"0.0-9.0-0.0","responseType":"finish","participantID":"vw2aprb4r2tg398zd9heutlo3wlebc5b","conditionNumber":"unexpected"},{"rt":5876,"responses":"{\"Q0\":9}","trial_type":"survey-likert","trial_index":33,"time_elapsed":171106,"internal_node_id":"0.0-9.0-1.0","responseType":"finish","participantID":"vw2aprb4r2tg398zd9heutlo3wlebc5b","conditionNumber":"unexpected"},{"rt":null,"stimulus":"\u003cp\u003eNow we will show you another configuration of the anagram \u003cbr\u003e\u003cbr\u003e\u003ccenter\u003e6 more to go\u003c/center\u003e\u003c/p\u003e","key_press":null,"trial_type":"html-keyboard-response","trial_index":34,"time_elapsed":177109,"internal_node_id":"0.0-9.0-2.0","responseType":"finish","participantID":"vw2aprb4r2tg398zd9heutlo3wlebc5b","conditionNumber":"unexpected"},{"rt":null,"stimulus":"\u003cp\u003e\u003ch1\u003eKWJAALY\u003c/h1\u003e\u003c/p\u003e","key_press":null,"trial_type":"html-keyboard-response","trial_index":35,"time_elapsed":181110,"internal_node_id":"0.0-9.1-0.1","responseType":"finish","participantID":"vw2aprb4r2tg398zd9heutlo3wlebc5b","conditionNumber":"unexpected"},{"rt":1867,"responses":"{\"Q0\":9}","trial_type":"survey-likert","trial_index":36,"time_elapsed":182979,"internal_node_id":"0.0-9.1-1.1","responseType":"finish","participantID":"vw2aprb4r2tg398zd9heutlo3wlebc5b","conditionNumber":"unexpected"},{"rt":null,"stimulus":"\u003cp\u003eNow we will show you another configuration of the anagram \u003cbr\u003e\u003cbr\u003e\u003ccenter\u003e5 more to go\u003c/center\u003e\u003c/p\u003e","key_press":null,"trial_type":"html-keyboard-response","trial_index":37,"time_elapsed":188981,"internal_node_id":"0.0-9.1-2.1","responseType":"finish","participantID":"vw2aprb4r2tg398zd9heutlo3wlebc5b","conditionNumber":"unexpected"},{"rt":null,"stimulus":"\u003cp\u003e\u003ch1\u003eJAWYALK\u003c/h1\u003e\u003c/p\u003e","key_press":null,"trial_type":"html-keyboard-response","trial_index":38,"time_elapsed":192982,"internal_node_id":"0.0-9.2-0.2","responseType":"finish","participantID":"vw2aprb4r2tg398zd9heutlo3wlebc5b","conditionNumber":"unexpected"},{"rt":1939,"responses":"{\"Q0\":9}","trial_type":"survey-likert","trial_index":39,"time_elapsed":194923,"internal_node_id":"0.0-9.2-1.2","responseType":"finish","participantID":"vw2aprb4r2tg398zd9heutlo3wlebc5b","conditionNumber":"unexpected"},{"rt":null,"stimulus":"\u003cp\u003eNow we will show you another configuration of the anagram \u003cbr\u003e\u003cbr\u003e\u003ccenter\u003e4 more to go\u003c/center\u003e\u003c/p\u003e","key_press":null,"trial_type":"html-keyboard-response","trial_index":40,"time_elapsed":194926,"internal_node_id":"0.0-9.2-2.2","responseType":"finish","participantID":"vw2aprb4r2tg398zd9heutlo3wlebc5b","conditionNumber":"unexpected"},{"rt":6587,"responses":"{\"Q0\":1}","trial_type":"survey-likert","trial_index":41,"time_elapsed":201515,"internal_node_id":"0.0-10.0","responseType":"finish","participantID":"vw2aprb4r2tg398zd9heutlo3wlebc5b","conditionNumber":"unexpected"}],"__v":0}
{"_id":{"$oid":"5d6ea1c673b3740004c3f528"},"data":[{"rt":3545,"responses":"{\"Q0\":\" I consent to participate \"}","trial_type":"survey-multi-choice","trial_index":0,"time_elapsed":3550,"internal_node_id":"0.0-0.0","responseType":"finish","participantID":"a6bjfdo7lahft0urn968fs7zmvnza9al","conditionNumber":"expected"},{"trial_type":"call-function","trial_index":1,"time_elapsed":3562,"internal_node_id":"0.0-1.0","responseType":"finish","participantID":"a6bjfdo7lahft0urn968fs7zmvnza9al","conditionNumber":"expected"},{"rt":10169,"stimulus":"\u003ch1 id=\"welcome\"\u003eWelcome\u003c/h1\u003e\n\u003cp\u003eWelcome to the Experiment! In this experiment, we will give you two \u003cem\u003eanagrams\u003c/em\u003e to solve. An \u003cem\u003eanagram\u003c/em\u003e is simply a word or phrase formed by rearranging the letters of another word or phrase. For example:\u003c/p\u003e\n\u003cul\u003e\n\u003cli\u003e\u003cstrong\u003ePOKER\u003c/strong\u003e is an anagram of \u003cstrong\u003ePKOER\u003c/strong\u003e\u003c/li\u003e\n\u003cli\u003e\u003cstrong\u003ePIKE\u003c/strong\u003e is an anagram of \u003cstrong\u003eKEPI\u003c/strong\u003e\u003c/li\u003e\n\u003c/ul\u003e\n\u003cp\u003eWe kindly request for your full attention for the experiment and ask you to refrain from using Google or other search engines. \u003c/p\u003e\n\u003cp\u003ePlease press the \u003cstrong\u003e'n' key\u003c/strong\u003e to continue once you understand.\u003c/p\u003e","key_press":78,"trial_type":"html-keyboard-response","trial_index":2,"time_elapsed":13732,"internal_node_id":"0.0-2.0","responseType":"finish","participantID":"a6bjfdo7lahft0urn968fs7zmvnza9al","conditionNumber":"expected"},{"rt":20162,"stimulus":"\u003ch1 id=\"instructions\"\u003eInstructions\u003c/h1\u003e\n\u003cp\u003eWhen you click next, you will be presented with an anagram that will be displayed for 4 seconds. Following that, the \u003cem\u003esame\u003c/em\u003e anagram will be presented to you again in a \u003cem\u003edifferent\u003c/em\u003e configuration for 4 seconds. \u003c/p\u003e\n\u003cp\u003eIn total, we will present the anagram to you in \u003cstrong\u003eseven\u003c/strong\u003e different configurations. If you have not figured the answer to the anagram by then, then at the \u003cstrong\u003eeighth\u003c/strong\u003e time, we will show a much \u003cstrong\u003eeasier\u003c/strong\u003e configuration of that anagram to you. \u003c/p\u003e\n\u003cp\u003eAs an example, you may be presented with random configurations such as: \u003cstrong\u003eONLEM\u003c/strong\u003e, \u003cstrong\u003eMOELN\u003c/strong\u003e, \u003cstrong\u003eNMEOL\u003c/strong\u003e, and finally the easier configuration, \u003cstrong\u003eLMEON\u003c/strong\u003e. Here, these configurations come from the same anagram, LEMON and your goal was figuring out the underlying anagram. \u003c/p\u003e\n\u003cp\u003ePlease press the \u003cstrong\u003e'm' key\u003c/strong\u003e to continue once you understand.\u003c/p\u003e","key_press":77,"trial_type":"html-keyboard-response","trial_index":3,"time_elapsed":33896,"internal_node_id":"0.0-3.0","responseType":"finish","participantID":"a6bjfdo7lahft0urn968fs7zmvnza9al","conditionNumber":"expected"},{"rt":5614,"stimulus":"\u003ch1 id=\"instructions\"\u003eInstructions\u003c/h1\u003e\n\u003cp\u003eNow, we will present you the first anagram which you have to solve. We will present the anagram to you in \u003cstrong\u003eseven\u003c/strong\u003e different configurations. If you have not figured the answer to the anagram by then, then we will show a much \u003cstrong\u003eeasier\u003c/strong\u003e configuration to you in the \u003cstrong\u003eeighth\u003c/strong\u003e iteration. \u003c/p\u003e\n\u003cp\u003ePlease press the \u003cstrong\u003e'b' key\u003c/strong\u003e to continue.\u003c/p\u003e","key_press":66,"trial_type":"html-keyboard-response","trial_index":4,"time_elapsed":39510,"internal_node_id":"0.0-4.0","responseType":"finish","participantID":"a6bjfdo7lahft0urn968fs7zmvnza9al","conditionNumber":"expected"},{"rt":5326,"responses":"{\"Q0\":\"7 configurations\"}","trial_type":"survey-multi-choice","trial_index":5,"time_elapsed":44841,"internal_node_id":"0.0-5.0","responseType":"finish","participantID":"a6bjfdo7lahft0urn968fs7zmvnza9al","conditionNumber":"expected"},{"rt":null,"stimulus":"\u003cp\u003e\u003ch1\u003eHNTYUGA\u003c/h1\u003e\u003c/p\u003e","key_press":null,"trial_type":"html-keyboard-response","trial_index":6,"time_elapsed":48844,"internal_node_id":"0.0-6.0-0.0","responseType":"finish","participantID":"a6bjfdo7lahft0urn968fs7zmvnza9al","conditionNumber":"expected"},{"rt":16246,"responses":"{\"Q0\":0}","trial_type":"survey-likert","trial_index":7,"time_elapsed":65093,"internal_node_id":"0.0-6.0-1.0","responseType":"finish","participantID":"a6bjfdo7lahft0urn968fs7zmvnza9al","conditionNumber":"expected"},{"rt":null,"stimulus":"\u003cp\u003eNow we will show you another configuration of the anagram \u003cbr\u003e\u003cbr\u003e\u003ccenter\u003e6 more to go\u003c/center\u003e\u003c/p\u003e","key_press":null,"trial_type":"html-keyboard-response","trial_index":8,"time_elapsed":71095,"internal_node_id":"0.0-6.0-2.0","responseType":"finish","participantID":"a6bjfdo7lahft0urn968fs7zmvnza9al","conditionNumber":"expected"},{"rt":null,"stimulus":"\u003cp\u003e\u003ch1\u003eUHNGYAT\u003c/h1\u003e\u003c/p\u003e","key_press":null,"trial_type":"html-keyboard-response","trial_index":9,"time_elapsed":75096,"internal_node_id":"0.0-6.1-0.1","responseType":"finish","participantID":"a6bjfdo7lahft0urn968fs7zmvnza9al","conditionNumber":"expected"},{"rt":5712,"responses":"{\"Q0\":9}","trial_type":"survey-likert","trial_index":10,"time_elapsed":80808,"internal_node_id":"0.0-6.1-1.1","responseType":"finish","participantID":"a6bjfdo7lahft0urn968fs7zmvnza9al","conditionNumber":"expected"},{"rt":null,"stimulus":"\u003cp\u003eNow we will show you another configuration of the anagram \u003cbr\u003e\u003cbr\u003e\u003ccenter\u003e5 more to go\u003c/center\u003e\u003c/p\u003e","key_press":null,"trial_type":"html-keyboard-response","trial_index":11,"time_elapsed":86810,"internal_node_id":"0.0-6.1-2.1","responseType":"finish","participantID":"a6bjfdo7lahft0urn968fs7zmvnza9al","conditionNumber":"expected"},{"rt":null,"stimulus":"\u003cp\u003e\u003ch1\u003eYHANUTG\u003c/h1\u003e\u003c/p\u003e","key_press":null,"trial_type":"html-keyboard-response","trial_index":12,"time_elapsed":90811,"internal_node_id":"0.0-6.2-0.2","responseType":"finish","participantID":"a6bjfdo7lahft0urn968fs7zmvnza9al","conditionNumber":"expected"},{"rt":2420,"responses":"{\"Q0\":9}","trial_type":"survey-likert","trial_index":13,"time_elapsed":93233,"internal_node_id":"0.0-6.2-1.2","responseType":"finish","participantID":"a6bjfdo7lahft0urn968fs7zmvnza9al","conditionNumber":"expected"},{"rt":null,"stimulus":"\u003cp\u003eNow we will show you another configuration of the anagram \u003cbr\u003e\u003cbr\u003e\u003ccenter\u003e4 more to go\u003c/center\u003e\u003c/p\u003e","key_press":null,"trial_type":"html-keyboard-response","trial_index":14,"time_elapsed":99236,"internal_node_id":"0.0-6.2-2.2","responseType":"finish","participantID":"a6bjfdo7lahft0urn968fs7zmvnza9al","conditionNumber":"expected"},{"rt":null,"stimulus":"\u003cp\u003e\u003ch1\u003eATGNYHU\u003c/h1\u003e\u003c/p\u003e","key_press":null,"trial_type":"html-keyboard-response","trial_index":15,"time_elapsed":103237,"internal_node_id":"0.0-6.3-0.3","responseType":"finish","participantID":"a6bjfdo7lahft0urn968fs7zmvnza9al","conditionNumber":"expected"},{"rt":10085,"responses":"{\"Q0\":9}","trial_type":"survey-likert","trial_index":16,"time_elapsed":113323,"internal_node_id":"0.0-6.3-1.3","responseType":"finish","participantID":"a6bjfdo7lahft0urn968fs7zmvnza9al","conditionNumber":"expected"},{"rt":null,"stimulus":"\u003cp\u003eNow we will show you another configuration of the anagram \u003cbr\u003e\u003cbr\u003e\u003ccenter\u003e3 more to go\u003c/center\u003e\u003c/p\u003e","key_press":null,"trial_type":"html-keyboard-response","trial_index":17,"time_elapsed":119327,"internal_node_id":"0.0-6.3-2.3","responseType":"finish","participantID":"a6bjfdo7lahft0urn968fs7zmvnza9al","conditionNumber":"expected"},{"rt":null,"stimulus":"\u003cp\u003e\u003ch1\u003eGANYTHU\u003c/h1\u003e\u003c/p\u003e","key_press":null,"trial_type":"html-keyboard-response","trial_index":18,"time_elapsed":123328,"internal_node_id":"0.0-6.4-0.4","responseType":"finish","participantID":"a6bjfdo7lahft0urn968fs7zmvnza9al","conditionNumber":"expected"},{"rt":5480,"responses":"{\"Q0\":9}","trial_type":"survey-likert","trial_index":19,"time_elapsed":128810,"internal_node_id":"0.0-6.4-1.4","responseType":"finish","participantID":"a6bjfdo7lahft0urn968fs7zmvnza9al","conditionNumber":"expected"},{"rt":null,"stimulus":"\u003cp\u003eNow we will show you another configuration of the anagram \u003cbr\u003e\u003cbr\u003e\u003ccenter\u003e2 more to go\u003c/center\u003e\u003c/p\u003e","key_press":null,"trial_type":"html-keyboard-response","trial_index":20,"time_elapsed":134811,"internal_node_id":"0.0-6.4-2.4","responseType":"finish","participantID":"a6bjfdo7lahft0urn968fs7zmvnza9al","conditionNumber":"expected"},{"rt":null,"stimulus":"\u003cp\u003e\u003ch1\u003eTHANYGU\u003c/h1\u003e\u003c/p\u003e","key_press":null,"trial_type":"html-keyboard-response","trial_index":21,"time_elapsed":138812,"internal_node_id":"0.0-6.5-0.5","responseType":"finish","participantID":"a6bjfdo7lahft0urn968fs7zmvnza9al","conditionNumber":"expected"},{"rt":2785,"responses":"{\"Q0\":9}","trial_type":"survey-likert","trial_index":22,"time_elapsed":141599,"internal_node_id":"0.0-6.5-1.5","responseType":"finish","participantID":"a6bjfdo7lahft0urn968fs7zmvnza9al","conditionNumber":"expected"},{"rt":null,"stimulus":"\u003cp\u003eNow we will show you another configuration of the anagram \u003cbr\u003e\u003cbr\u003e\u003ccenter\u003e1 more to go\u003c/center\u003e\u003c/p\u003e","key_press":null,"trial_type":"html-keyboard-response","trial_index":23,"time_elapsed":147601,"internal_node_id":"0.0-6.5-2.5","responseType":"finish","participantID":"a6bjfdo7lahft0urn968fs7zmvnza9al","conditionNumber":"expected"},{"rt":null,"stimulus":"\u003cp\u003e\u003ch1\u003eAGNYUTH\u003c/h1\u003e\u003c/p\u003e","key_press":null,"trial_type":"html-keyboard-response","trial_index":24,"time_elapsed":151602,"internal_node_id":"0.0-6.6-0.6","responseType":"finish","participantID":"a6bjfdo7lahft0urn968fs7zmvnza9al","conditionNumber":"expected"},{"rt":2438,"responses":"{\"Q0\":9}","trial_type":"survey-likert","trial_index":25,"time_elapsed":154040,"internal_node_id":"0.0-6.6-1.6","responseType":"finish","participantID":"a6bjfdo7lahft0urn968fs7zmvnza9al","conditionNumber":"expected"},{"rt":null,"stimulus":"\u003cp\u003eWe will now show you a much \u003cb\u003eeasier\u003c/b\u003e configuration of this anagram\u003c/p\u003e","key_press":null,"trial_type":"html-keyboard-response","trial_index":26,"time_elapsed":160042,"internal_node_id":"0.0-6.6-2.6","responseType":"finish","participantID":"a6bjfdo7lahft0urn968fs7zmvnza9al","conditionNumber":"expected"},{"rt":null,"stimulus":"\u003cp\u003e\u003ch1\u003eNAUGHYT\u003c/h1\u003e\u003c/p\u003e","key_press":null,"trial_type":"html-keyboard-response","trial_index":27,"time_elapsed":164043,"internal_node_id":"0.0-6.7-0.7","responseType":"finish","participantID":"a6bjfdo7lahft0urn968fs7zmvnza9al","conditionNumber":"expected"},{"rt":2381,"responses":"{\"Q0\":9}","trial_type":"survey-likert","trial_index":28,"time_elapsed":166425,"internal_node_id":"0.0-6.7-1.7","responseType":"finish","participantID":"a6bjfdo7lahft0urn968fs7zmvnza9al","conditionNumber":"expected"},{"rt":null,"stimulus":"\u003cp\u003eNow we will show you another configuration of the anagram \u003cbr\u003e\u003cbr\u003e\u003ccenter\u003e-1 more to go\u003c/center\u003e\u003c/p\u003e","key_press":null,"trial_type":"html-keyboard-response","trial_index":29,"time_elapsed":166428,"internal_node_id":"0.0-6.7-2.7","responseType":"finish","participantID":"a6bjfdo7lahft0urn968fs7zmvnza9al","conditionNumber":"expected"},{"rt":10222,"responses":"{\"Q0\":3}","trial_type":"survey-likert","trial_index":30,"time_elapsed":176651,"internal_node_id":"0.0-7.0","responseType":"finish","participantID":"a6bjfdo7lahft0urn968fs7zmvnza9al","conditionNumber":"expected"},{"rt":5404,"stimulus":"\u003ch1 id=\"instructions\"\u003eInstructions\u003c/h1\u003e\n\u003cp\u003eThank you for your attention so far. Now, you will be presented with the second anagram which you have to solve. \u003c/p\u003e\n\u003cp\u003eWe will again present the anagram to you in \u003cstrong\u003eseven\u003c/strong\u003e different configurations. If you have not figured the answer to the anagram by then, then at the \u003cstrong\u003eeighth\u003c/strong\u003e time, we will show a much \u003cstrong\u003eeasier\u003c/strong\u003e configuration of that anagram to you. \u003c/p\u003e\n\u003cp\u003ePlease press the \u003cstrong\u003e'g' key\u003c/strong\u003e to continue once you understand.\u003c/p\u003e","key_press":71,"trial_type":"html-keyboard-response","trial_index":31,"time_elapsed":182058,"internal_node_id":"0.0-8.0","responseType":"finish","participantID":"a6bjfdo7lahft0urn968fs7zmvnza9al","conditionNumber":"expected"},{"rt":null,"stimulus":"\u003cp\u003e\u003ch1\u003eYKLAAWJ\u003c/h1\u003e\u003c/p\u003e","key_press":null,"trial_type":"html-keyboard-response","trial_index":32,"time_elapsed":186059,"internal_node_id":"0.0-9.0-0.0","responseType":"finish","participantID":"a6bjfdo7lahft0urn968fs7zmvnza9al","conditionNumber":"expected"},{"rt":2827,"responses":"{\"Q0\":9}","trial_type":"survey-likert","trial_index":33,"time_elapsed":188888,"internal_node_id":"0.0-9.0-1.0","responseType":"finish","participantID":"a6bjfdo7lahft0urn968fs7zmvnza9al","conditionNumber":"expected"},{"rt":null,"stimulus":"\u003cp\u003eNow we will show you another configuration of the anagram \u003cbr\u003e\u003cbr\u003e\u003ccenter\u003e6 more to go\u003c/center\u003e\u003c/p\u003e","key_press":null,"trial_type":"html-keyboard-response","trial_index":34,"time_elapsed":194890,"internal_node_id":"0.0-9.0-2.0","responseType":"finish","participantID":"a6bjfdo7lahft0urn968fs7zmvnza9al","conditionNumber":"expected"},{"rt":null,"stimulus":"\u003cp\u003e\u003ch1\u003eKWJAALY\u003c/h1\u003e\u003c/p\u003e","key_press":null,"trial_type":"html-keyboard-response","trial_index":35,"time_elapsed":198891,"internal_node_id":"0.0-9.1-0.1","responseType":"finish","participantID":"a6bjfdo7lahft0urn968fs7zmvnza9al","conditionNumber":"expected"},{"rt":1401,"responses":"{\"Q0\":9}","trial_type":"survey-likert","trial_index":36,"time_elapsed":200294,"internal_node_id":"0.0-9.1-1.1","responseType":"finish","participantID":"a6bjfdo7lahft0urn968fs7zmvnza9al","conditionNumber":"expected"},{"rt":null,"stimulus":"\u003cp\u003eNow we will show you another configuration of the anagram \u003cbr\u003e\u003cbr\u003e\u003ccenter\u003e5 more to go\u003c/center\u003e\u003c/p\u003e","key_press":null,"trial_type":"html-keyboard-response","trial_index":37,"time_elapsed":206304,"internal_node_id":"0.0-9.1-2.1","responseType":"finish","participantID":"a6bjfdo7lahft0urn968fs7zmvnza9al","conditionNumber":"expected"},{"rt":null,"stimulus":"\u003cp\u003e\u003ch1\u003eLKAWYAJ\u003c/h1\u003e\u003c/p\u003e","key_press":null,"trial_type":"html-keyboard-response","trial_index":38,"time_elapsed":210306,"internal_node_id":"0.0-9.2-0.2","responseType":"finish","participantID":"a6bjfdo7lahft0urn968fs7zmvnza9al","conditionNumber":"expected"},{"rt":2340,"responses":"{\"Q0\":9}","trial_type":"survey-likert","trial_index":39,"time_elapsed":212646,"internal_node_id":"0.0-9.2-1.2","responseType":"finish","participantID":"a6bjfdo7lahft0urn968fs7zmvnza9al","conditionNumber":"expected"},{"rt":null,"stimulus":"\u003cp\u003eNow we will show you another configuration of the anagram \u003cbr\u003e\u003cbr\u003e\u003ccenter\u003e4 more to go\u003c/center\u003e\u003c/p\u003e","key_press":null,"trial_type":"html-keyboard-response","trial_index":40,"time_elapsed":218648,"internal_node_id":"0.0-9.2-2.2","responseType":"finish","participantID":"a6bjfdo7lahft0urn968fs7zmvnza9al","conditionNumber":"expected"},{"rt":null,"stimulus":"\u003cp\u003e\u003ch1\u003eAWYJLKA\u003c/h1\u003e\u003c/p\u003e","key_press":null,"trial_type":"html-keyboard-response","trial_index":41,"time_elapsed":222649,"internal_node_id":"0.0-9.3-0.3","responseType":"finish","participantID":"a6bjfdo7lahft0urn968fs7zmvnza9al","conditionNumber":"expected"},{"rt":1958,"responses":"{\"Q0\":9}","trial_type":"survey-likert","trial_index":42,"time_elapsed":224608,"internal_node_id":"0.0-9.3-1.3","responseType":"finish","participantID":"a6bjfdo7lahft0urn968fs7zmvnza9al","conditionNumber":"expected"},{"rt":null,"stimulus":"\u003cp\u003eNow we will show you another configuration of the anagram \u003cbr\u003e\u003cbr\u003e\u003ccenter\u003e3 more to go\u003c/center\u003e\u003c/p\u003e","key_press":null,"trial_type":"html-keyboard-response","trial_index":43,"time_elapsed":230610,"internal_node_id":"0.0-9.3-2.3","responseType":"finish","participantID":"a6bjfdo7lahft0urn968fs7zmvnza9al","conditionNumber":"expected"},{"rt":null,"stimulus":"\u003cp\u003e\u003ch1\u003eWKLAYJA\u003c/h1\u003e\u003c/p\u003e","key_press":null,"trial_type":"html-keyboard-response","trial_index":44,"time_elapsed":234627,"internal_node_id":"0.0-9.4-0.4","responseType":"finish","participantID":"a6bjfdo7lahft0urn968fs7zmvnza9al","conditionNumber":"expected"},{"rt":3673,"responses":"{\"Q0\":9}","trial_type":"survey-likert","trial_index":45,"time_elapsed":238308,"internal_node_id":"0.0-9.4-1.4","responseType":"finish","participantID":"a6bjfdo7lahft0urn968fs7zmvnza9al","conditionNumber":"expected"},{"rt":null,"stimulus":"\u003cp\u003eNow we will show you another configuration of the anagram \u003cbr\u003e\u003cbr\u003e\u003ccenter\u003e2 more to go\u003c/center\u003e\u003c/p\u003e","key_press":null,"trial_type":"html-keyboard-response","trial_index":46,"time_elapsed":244310,"internal_node_id":"0.0-9.4-2.4","responseType":"finish","participantID":"a6bjfdo7lahft0urn968fs7zmvnza9al","conditionNumber":"expected"},{"rt":null,"stimulus":"\u003cp\u003e\u003ch1\u003eLAAKWJY\u003c/h1\u003e\u003c/p\u003e","key_press":null,"trial_type":"html-keyboard-response","trial_index":47,"time_elapsed":248311,"internal_node_id":"0.0-9.5-0.5","responseType":"finish","participantID":"a6bjfdo7lahft0urn968fs7zmvnza9al","conditionNumber":"expected"},{"rt":3750,"responses":"{\"Q0\":9}","trial_type":"survey-likert","trial_index":48,"time_elapsed":252061,"internal_node_id":"0.0-9.5-1.5","responseType":"finish","participantID":"a6bjfdo7lahft0urn968fs7zmvnza9al","conditionNumber":"expected"},{"rt":null,"stimulus":"\u003cp\u003eNow we will show you another configuration of the anagram \u003cbr\u003e\u003cbr\u003e\u003ccenter\u003e1 more to go\u003c/center\u003e\u003c/p\u003e","key_press":null,"trial_type":"html-keyboard-response","trial_index":49,"time_elapsed":258063,"internal_node_id":"0.0-9.5-2.5","responseType":"finish","participantID":"a6bjfdo7lahft0urn968fs7zmvnza9al","conditionNumber":"expected"},{"rt":null,"stimulus":"\u003cp\u003e\u003ch1\u003eWJYAKAL\u003c/h1\u003e\u003c/p\u003e","key_press":null,"trial_type":"html-keyboard-response","trial_index":50,"time_elapsed":262073,"internal_node_id":"0.0-9.6-0.6","responseType":"finish","participantID":"a6bjfdo7lahft0urn968fs7zmvnza9al","conditionNumber":"expected"},{"rt":3925,"responses":"{\"Q0\":9}","trial_type":"survey-likert","trial_index":51,"time_elapsed":265998,"internal_node_id":"0.0-9.6-1.6","responseType":"finish","participantID":"a6bjfdo7lahft0urn968fs7zmvnza9al","conditionNumber":"expected"},{"rt":null,"stimulus":"\u003cp\u003eWe will now show you a much \u003cb\u003eeasier\u003c/b\u003e configuration of this anagram\u003c/p\u003e","key_press":null,"trial_type":"html-keyboard-response","trial_index":52,"time_elapsed":272000,"internal_node_id":"0.0-9.6-2.6","responseType":"finish","participantID":"a6bjfdo7lahft0urn968fs7zmvnza9al","conditionNumber":"expected"},{"rt":null,"stimulus":"\u003cp\u003e\u003ch1\u003eJAWYALK\u003c/h1\u003e\u003c/p\u003e","key_press":null,"trial_type":"html-keyboard-response","trial_index":53,"time_elapsed":276002,"internal_node_id":"0.0-9.7-0.7","responseType":"finish","participantID":"a6bjfdo7lahft0urn968fs7zmvnza9al","conditionNumber":"expected"},{"rt":2286,"responses":"{\"Q0\":9}","trial_type":"survey-likert","trial_index":54,"time_elapsed":278288,"internal_node_id":"0.0-9.7-1.7","responseType":"finish","participantID":"a6bjfdo7lahft0urn968fs7zmvnza9al","conditionNumber":"expected"},{"rt":null,"stimulus":"\u003cp\u003eNow we will show you another configuration of the anagram \u003cbr\u003e\u003cbr\u003e\u003ccenter\u003e-1 more to go\u003c/center\u003e\u003c/p\u003e","key_press":null,"trial_type":"html-keyboard-response","trial_index":55,"time_elapsed":278290,"internal_node_id":"0.0-9.7-2.7","responseType":"finish","participantID":"a6bjfdo7lahft0urn968fs7zmvnza9al","conditionNumber":"expected"},{"rt":7397,"responses":"{\"Q0\":0}","trial_type":"survey-likert","trial_index":56,"time_elapsed":285689,"internal_node_id":"0.0-10.0","responseType":"finish","participantID":"a6bjfdo7lahft0urn968fs7zmvnza9al","conditionNumber":"expected"}],"__v":0}
{"_id":{"$oid":"5d6ea1e273b3740004c3f529"},"data":[{"rt":4560,"responses":"{\"Q0\":\" I consent to participate \"}","trial_type":"survey-multi-choice","trial_index":0,"time_elapsed":4566,"internal_node_id":"0.0-0.0","responseType":"finish","participantID":"jvjzonrhvtuylh3c6pgq801zp3m3f5ka","conditionNumber":"expected"},{"trial_type":"call-function","trial_index":1,"time_elapsed":4572,"internal_node_id":"0.0-1.0","responseType":"finish","participantID":"jvjzonrhvtuylh3c6pgq801zp3m3f5ka","conditionNumber":"expected"},{"rt":29207,"stimulus":"\u003ch1 id=\"welcome\"\u003eWelcome\u003c/h1\u003e\n\u003cp\u003eWelcome to the Experiment! In this experiment, we will give you two \u003cem\u003eanagrams\u003c/em\u003e to solve. An \u003cem\u003eanagram\u003c/em\u003e is simply a word or phrase formed by rearranging the letters of another word or phrase. For example:\u003c/p\u003e\n\u003cul\u003e\n\u003cli\u003e\u003cstrong\u003ePOKER\u003c/strong\u003e is an anagram of \u003cstrong\u003ePKOER\u003c/strong\u003e\u003c/li\u003e\n\u003cli\u003e\u003cstrong\u003ePIKE\u003c/strong\u003e is an anagram of \u003cstrong\u003eKEPI\u003c/strong\u003e\u003c/li\u003e\n\u003c/ul\u003e\n\u003cp\u003eWe kindly request for your full attention for the experiment and ask you to refrain from using Google or other search engines. \u003c/p\u003e\n\u003cp\u003ePlease press the \u003cstrong\u003e'n' key\u003c/strong\u003e to continue once you understand.\u003c/p\u003e","key_press":78,"trial_type":"html-keyboard-response","trial_index":2,"time_elapsed":33781,"internal_node_id":"0.0-2.0","responseType":"finish","participantID":"jvjzonrhvtuylh3c6pgq801zp3m3f5ka","conditionNumber":"expected"},{"rt":21846,"stimulus":"\u003ch1 id=\"instructions\"\u003eInstructions\u003c/h1\u003e\n\u003cp\u003eWhen you click next, you will be presented with an anagram that will be displayed for 4 seconds. Following that, the \u003cem\u003esame\u003c/em\u003e anagram will be presented to you again in a \u003cem\u003edifferent\u003c/em\u003e configuration for 4 seconds. \u003c/p\u003e\n\u003cp\u003eIn total, we will present the anagram to you in \u003cstrong\u003eseven\u003c/strong\u003e different configurations. If you have not figured the answer to the anagram by then, then at the \u003cstrong\u003eeighth\u003c/strong\u003e time, we will show a much \u003cstrong\u003eeasier\u003c/strong\u003e configuration of that anagram to you. \u003c/p\u003e\n\u003cp\u003eAs an example, you may be presented with random configurations such as: \u003cstrong\u003eONLEM\u003c/strong\u003e, \u003cstrong\u003eMOELN\u003c/strong\u003e, \u003cstrong\u003eNMEOL\u003c/strong\u003e, and finally the easier configuration, \u003cstrong\u003eLMEON\u003c/strong\u003e. Here, these configurations come from the same anagram, LEMON and your goal was figuring out the underlying anagram. \u003c/p\u003e\n\u003cp\u003ePlease press the \u003cstrong\u003e'm' key\u003c/strong\u003e to continue once you understand.\u003c/p\u003e","key_press":77,"trial_type":"html-keyboard-response","trial_index":3,"time_elapsed":55628,"internal_node_id":"0.0-3.0","responseType":"finish","participantID":"jvjzonrhvtuylh3c6pgq801zp3m3f5ka","conditionNumber":"expected"},{"rt":8253,"stimulus":"\u003ch1 id=\"instructions\"\u003eInstructions\u003c/h1\u003e\n\u003cp\u003eNow, we will present you the first anagram which you have to solve. We will present the anagram to you in \u003cstrong\u003eseven\u003c/strong\u003e different configurations. If you have not figured the answer to the anagram by then, then we will show a much \u003cstrong\u003eeasier\u003c/strong\u003e configuration to you in the \u003cstrong\u003eeighth\u003c/strong\u003e iteration. \u003c/p\u003e\n\u003cp\u003ePlease press the \u003cstrong\u003e'b' key\u003c/strong\u003e to continue.\u003c/p\u003e","key_press":66,"trial_type":"html-keyboard-response","trial_index":4,"time_elapsed":63883,"internal_node_id":"0.0-4.0","responseType":"finish","participantID":"jvjzonrhvtuylh3c6pgq801zp3m3f5ka","conditionNumber":"expected"},{"rt":4333,"responses":"{\"Q0\":\"7 configurations\"}","trial_type":"survey-multi-choice","trial_index":5,"time_elapsed":68218,"internal_node_id":"0.0-5.0","responseType":"finish","participantID":"jvjzonrhvtuylh3c6pgq801zp3m3f5ka","conditionNumber":"expected"},{"rt":null,"stimulus":"\u003cp\u003e\u003ch1\u003eHNTYUGA\u003c/h1\u003e\u003c/p\u003e","key_press":null,"trial_type":"html-keyboard-response","trial_index":6,"time_elapsed":72225,"internal_node_id":"0.0-6.0-0.0","responseType":"finish","participantID":"jvjzonrhvtuylh3c6pgq801zp3m3f5ka","conditionNumber":"expected"},{"rt":4088,"responses":"{\"Q0\":1}","trial_type":"survey-likert","trial_index":7,"time_elapsed":76316,"internal_node_id":"0.0-6.0-1.0","responseType":"finish","participantID":"jvjzonrhvtuylh3c6pgq801zp3m3f5ka","conditionNumber":"expected"},{"rt":null,"stimulus":"\u003cp\u003eNow we will show you another configuration of the anagram \u003cbr\u003e\u003cbr\u003e\u003ccenter\u003e6 more to go\u003c/center\u003e\u003c/p\u003e","key_press":null,"trial_type":"html-keyboard-response","trial_index":8,"time_elapsed":82318,"internal_node_id":"0.0-6.0-2.0","responseType":"finish","participantID":"jvjzonrhvtuylh3c6pgq801zp3m3f5ka","conditionNumber":"expected"},{"rt":null,"stimulus":"\u003cp\u003e\u003ch1\u003eUHNGYAT\u003c/h1\u003e\u003c/p\u003e","key_press":null,"trial_type":"html-keyboard-response","trial_index":9,"time_elapsed":86323,"internal_node_id":"0.0-6.1-0.1","responseType":"finish","participantID":"jvjzonrhvtuylh3c6pgq801zp3m3f5ka","conditionNumber":"expected"},{"rt":3062,"responses":"{\"Q0\":1}","trial_type":"survey-likert","trial_index":10,"time_elapsed":89387,"internal_node_id":"0.0-6.1-1.1","responseType":"finish","participantID":"jvjzonrhvtuylh3c6pgq801zp3m3f5ka","conditionNumber":"expected"},{"rt":null,"stimulus":"\u003cp\u003eNow we will show you another configuration of the anagram \u003cbr\u003e\u003cbr\u003e\u003ccenter\u003e5 more to go\u003c/center\u003e\u003c/p\u003e","key_press":null,"trial_type":"html-keyboard-response","trial_index":11,"time_elapsed":95393,"internal_node_id":"0.0-6.1-2.1","responseType":"finish","participantID":"jvjzonrhvtuylh3c6pgq801zp3m3f5ka","conditionNumber":"expected"},{"rt":null,"stimulus":"\u003cp\u003e\u003ch1\u003eYHANUTG\u003c/h1\u003e\u003c/p\u003e","key_press":null,"trial_type":"html-keyboard-response","trial_index":12,"time_elapsed":99398,"internal_node_id":"0.0-6.2-0.2","responseType":"finish","participantID":"jvjzonrhvtuylh3c6pgq801zp3m3f5ka","conditionNumber":"expected"},{"rt":2627,"responses":"{\"Q0\":0}","trial_type":"survey-likert","trial_index":13,"time_elapsed":102027,"internal_node_id":"0.0-6.2-1.2","responseType":"finish","participantID":"jvjzonrhvtuylh3c6pgq801zp3m3f5ka","conditionNumber":"expected"},{"rt":null,"stimulus":"\u003cp\u003eNow we will show you another configuration of the anagram \u003cbr\u003e\u003cbr\u003e\u003ccenter\u003e4 more to go\u003c/center\u003e\u003c/p\u003e","key_press":null,"trial_type":"html-keyboard-response","trial_index":14,"time_elapsed":108029,"internal_node_id":"0.0-6.2-2.2","responseType":"finish","participantID":"jvjzonrhvtuylh3c6pgq801zp3m3f5ka","conditionNumber":"expected"},{"rt":null,"stimulus":"\u003cp\u003e\u003ch1\u003eATGNYHU\u003c/h1\u003e\u003c/p\u003e","key_press":null,"trial_type":"html-keyboard-response","trial_index":15,"time_elapsed":112035,"internal_node_id":"0.0-6.3-0.3","responseType":"finish","participantID":"jvjzonrhvtuylh3c6pgq801zp3m3f5ka","conditionNumber":"expected"},{"rt":3309,"responses":"{\"Q0\":0}","trial_type":"survey-likert","trial_index":16,"time_elapsed":115347,"internal_node_id":"0.0-6.3-1.3","responseType":"finish","participantID":"jvjzonrhvtuylh3c6pgq801zp3m3f5ka","conditionNumber":"expected"},{"rt":null,"stimulus":"\u003cp\u003eNow we will show you another configuration of the anagram \u003cbr\u003e\u003cbr\u003e\u003ccenter\u003e3 more to go\u003c/center\u003e\u003c/p\u003e","key_press":null,"trial_type":"html-keyboard-response","trial_index":17,"time_elapsed":121354,"internal_node_id":"0.0-6.3-2.3","responseType":"finish","participantID":"jvjzonrhvtuylh3c6pgq801zp3m3f5ka","conditionNumber":"expected"},{"rt":null,"stimulus":"\u003cp\u003e\u003ch1\u003eGANYTHU\u003c/h1\u003e\u003c/p\u003e","key_press":null,"trial_type":"html-keyboard-response","trial_index":18,"time_elapsed":125356,"internal_node_id":"0.0-6.4-0.4","responseType":"finish","participantID":"jvjzonrhvtuylh3c6pgq801zp3m3f5ka","conditionNumber":"expected"},{"rt":2093,"responses":"{\"Q0\":0}","trial_type":"survey-likert","trial_index":19,"time_elapsed":127451,"internal_node_id":"0.0-6.4-1.4","responseType":"finish","participantID":"jvjzonrhvtuylh3c6pgq801zp3m3f5ka","conditionNumber":"expected"},{"rt":null,"stimulus":"\u003cp\u003eNow we will show you another configuration of the anagram \u003cbr\u003e\u003cbr\u003e\u003ccenter\u003e2 more to go\u003c/center\u003e\u003c/p\u003e","key_press":null,"trial_type":"html-keyboard-response","trial_index":20,"time_elapsed":133455,"internal_node_id":"0.0-6.4-2.4","responseType":"finish","participantID":"jvjzonrhvtuylh3c6pgq801zp3m3f5ka","conditionNumber":"expected"},{"rt":null,"stimulus":"\u003cp\u003e\u003ch1\u003eTHANYGU\u003c/h1\u003e\u003c/p\u003e","key_press":null,"trial_type":"html-keyboard-response","trial_index":21,"time_elapsed":137459,"internal_node_id":"0.0-6.5-0.5","responseType":"finish","participantID":"jvjzonrhvtuylh3c6pgq801zp3m3f5ka","conditionNumber":"expected"},{"rt":3101,"responses":"{\"Q0\":2}","trial_type":"survey-likert","trial_index":22,"time_elapsed":140562,"internal_node_id":"0.0-6.5-1.5","responseType":"finish","participantID":"jvjzonrhvtuylh3c6pgq801zp3m3f5ka","conditionNumber":"expected"},{"rt":null,"stimulus":"\u003cp\u003eNow we will show you another configuration of the anagram \u003cbr\u003e\u003cbr\u003e\u003ccenter\u003e1 more to go\u003c/center\u003e\u003c/p\u003e","key_press":null,"trial_type":"html-keyboard-response","trial_index":23,"time_elapsed":146564,"internal_node_id":"0.0-6.5-2.5","responseType":"finish","participantID":"jvjzonrhvtuylh3c6pgq801zp3m3f5ka","conditionNumber":"expected"},{"rt":null,"stimulus":"\u003cp\u003e\u003ch1\u003eAGNYUTH\u003c/h1\u003e\u003c/p\u003e","key_press":null,"trial_type":"html-keyboard-response","trial_index":24,"time_elapsed":150570,"internal_node_id":"0.0-6.6-0.6","responseType":"finish","participantID":"jvjzonrhvtuylh3c6pgq801zp3m3f5ka","conditionNumber":"expected"},{"rt":3213,"responses":"{\"Q0\":1}","trial_type":"survey-likert","trial_index":25,"time_elapsed":153786,"internal_node_id":"0.0-6.6-1.6","responseType":"finish","participantID":"jvjzonrhvtuylh3c6pgq801zp3m3f5ka","conditionNumber":"expected"},{"rt":null,"stimulus":"\u003cp\u003eWe will now show you a much \u003cb\u003eeasier\u003c/b\u003e configuration of this anagram\u003c/p\u003e","key_press":null,"trial_type":"html-keyboard-response","trial_index":26,"time_elapsed":159790,"internal_node_id":"0.0-6.6-2.6","responseType":"finish","participantID":"jvjzonrhvtuylh3c6pgq801zp3m3f5ka","conditionNumber":"expected"},{"rt":null,"stimulus":"\u003cp\u003e\u003ch1\u003eNAUGHYT\u003c/h1\u003e\u003c/p\u003e","key_press":null,"trial_type":"html-keyboard-response","trial_index":27,"time_elapsed":163795,"internal_node_id":"0.0-6.7-0.7","responseType":"finish","participantID":"jvjzonrhvtuylh3c6pgq801zp3m3f5ka","conditionNumber":"expected"},{"rt":2941,"responses":"{\"Q0\":9}","trial_type":"survey-likert","trial_index":28,"time_elapsed":166737,"internal_node_id":"0.0-6.7-1.7","responseType":"finish","participantID":"jvjzonrhvtuylh3c6pgq801zp3m3f5ka","conditionNumber":"expected"},{"rt":null,"stimulus":"\u003cp\u003eNow we will show you another configuration of the anagram \u003cbr\u003e\u003cbr\u003e\u003ccenter\u003e-1 more to go\u003c/center\u003e\u003c/p\u003e","key_press":null,"trial_type":"html-keyboard-response","trial_index":29,"time_elapsed":166740,"internal_node_id":"0.0-6.7-2.7","responseType":"finish","participantID":"jvjzonrhvtuylh3c6pgq801zp3m3f5ka","conditionNumber":"expected"},{"rt":14124,"responses":"{\"Q0\":6}","trial_type":"survey-likert","trial_index":30,"time_elapsed":180866,"internal_node_id":"0.0-7.0","responseType":"finish","participantID":"jvjzonrhvtuylh3c6pgq801zp3m3f5ka","conditionNumber":"expected"},{"rt":6685,"stimulus":"\u003ch1 id=\"instructions\"\u003eInstructions\u003c/h1\u003e\n\u003cp\u003eThank you for your attention so far. Now, you will be presented with the second anagram which you have to solve. \u003c/p\u003e\n\u003cp\u003eWe will again present the anagram to you in \u003cstrong\u003eseven\u003c/strong\u003e different configurations. If you have not figured the answer to the anagram by then, then at the \u003cstrong\u003eeighth\u003c/strong\u003e time, we will show a much \u003cstrong\u003eeasier\u003c/strong\u003e configuration of that anagram to you. \u003c/p\u003e\n\u003cp\u003ePlease press the \u003cstrong\u003e'g' key\u003c/strong\u003e to continue once you understand.\u003c/p\u003e","key_press":71,"trial_type":"html-keyboard-response","trial_index":31,"time_elapsed":187553,"internal_node_id":"0.0-8.0","responseType":"finish","participantID":"jvjzonrhvtuylh3c6pgq801zp3m3f5ka","conditionNumber":"expected"},{"rt":null,"stimulus":"\u003cp\u003e\u003ch1\u003eYKLAAWJ\u003c/h1\u003e\u003c/p\u003e","key_press":null,"trial_type":"html-keyboard-response","trial_index":32,"time_elapsed":191559,"internal_node_id":"0.0-9.0-0.0","responseType":"finish","participantID":"jvjzonrhvtuylh3c6pgq801zp3m3f5ka","conditionNumber":"expected"},{"rt":3559,"responses":"{\"Q0\":0}","trial_type":"survey-likert","trial_index":33,"time_elapsed":195120,"internal_node_id":"0.0-9.0-1.0","responseType":"finish","participantID":"jvjzonrhvtuylh3c6pgq801zp3m3f5ka","conditionNumber":"expected"},{"rt":null,"stimulus":"\u003cp\u003eNow we will show you another configuration of the anagram \u003cbr\u003e\u003cbr\u003e\u003ccenter\u003e6 more to go\u003c/center\u003e\u003c/p\u003e","key_press":null,"trial_type":"html-keyboard-response","trial_index":34,"time_elapsed":201124,"internal_node_id":"0.0-9.0-2.0","responseType":"finish","participantID":"jvjzonrhvtuylh3c6pgq801zp3m3f5ka","conditionNumber":"expected"},{"rt":null,"stimulus":"\u003cp\u003e\u003ch1\u003eKWJAALY\u003c/h1\u003e\u003c/p\u003e","key_press":null,"trial_type":"html-keyboard-response","trial_index":35,"time_elapsed":205127,"internal_node_id":"0.0-9.1-0.1","responseType":"finish","participantID":"jvjzonrhvtuylh3c6pgq801zp3m3f5ka","conditionNumber":"expected"},{"rt":10543,"responses":"{\"Q0\":0}","trial_type":"survey-likert","trial_index":36,"time_elapsed":215672,"internal_node_id":"0.0-9.1-1.1","responseType":"finish","participantID":"jvjzonrhvtuylh3c6pgq801zp3m3f5ka","conditionNumber":"expected"},{"rt":null,"stimulus":"\u003cp\u003eNow we will show you another configuration of the anagram \u003cbr\u003e\u003cbr\u003e\u003ccenter\u003e5 more to go\u003c/center\u003e\u003c/p\u003e","key_press":null,"trial_type":"html-keyboard-response","trial_index":37,"time_elapsed":221677,"internal_node_id":"0.0-9.1-2.1","responseType":"finish","participantID":"jvjzonrhvtuylh3c6pgq801zp3m3f5ka","conditionNumber":"expected"},{"rt":null,"stimulus":"\u003cp\u003e\u003ch1\u003eLKAWYAJ\u003c/h1\u003e\u003c/p\u003e","key_press":null,"trial_type":"html-keyboard-response","trial_index":38,"time_elapsed":225680,"internal_node_id":"0.0-9.2-0.2","responseType":"finish","participantID":"jvjzonrhvtuylh3c6pgq801zp3m3f5ka","conditionNumber":"expected"},{"rt":4829,"responses":"{\"Q0\":0}","trial_type":"survey-likert","trial_index":39,"time_elapsed":230511,"internal_node_id":"0.0-9.2-1.2","responseType":"finish","participantID":"jvjzonrhvtuylh3c6pgq801zp3m3f5ka","conditionNumber":"expected"},{"rt":null,"stimulus":"\u003cp\u003eNow we will show you another configuration of the anagram \u003cbr\u003e\u003cbr\u003e\u003ccenter\u003e4 more to go\u003c/center\u003e\u003c/p\u003e","key_press":null,"trial_type":"html-keyboard-response","trial_index":40,"time_elapsed":236515,"internal_node_id":"0.0-9.2-2.2","responseType":"finish","participantID":"jvjzonrhvtuylh3c6pgq801zp3m3f5ka","conditionNumber":"expected"},{"rt":null,"stimulus":"\u003cp\u003e\u003ch1\u003eAWYJLKA\u003c/h1\u003e\u003c/p\u003e","key_press":null,"trial_type":"html-keyboard-response","trial_index":41,"time_elapsed":240521,"internal_node_id":"0.0-9.3-0.3","responseType":"finish","participantID":"jvjzonrhvtuylh3c6pgq801zp3m3f5ka","conditionNumber":"expected"},{"rt":7788,"responses":"{\"Q0\":0}","trial_type":"survey-likert","trial_index":42,"time_elapsed":248310,"internal_node_id":"0.0-9.3-1.3","responseType":"finish","participantID":"jvjzonrhvtuylh3c6pgq801zp3m3f5ka","conditionNumber":"expected"},{"rt":null,"stimulus":"\u003cp\u003eNow we will show you another configuration of the anagram \u003cbr\u003e\u003cbr\u003e\u003ccenter\u003e3 more to go\u003c/center\u003e\u003c/p\u003e","key_press":null,"trial_type":"html-keyboard-response","trial_index":43,"time_elapsed":254316,"internal_node_id":"0.0-9.3-2.3","responseType":"finish","participantID":"jvjzonrhvtuylh3c6pgq801zp3m3f5ka","conditionNumber":"expected"},{"rt":null,"stimulus":"\u003cp\u003e\u003ch1\u003eWKLAYJA\u003c/h1\u003e\u003c/p\u003e","key_press":null,"trial_type":"html-keyboard-response","trial_index":44,"time_elapsed":258317,"internal_node_id":"0.0-9.4-0.4","responseType":"finish","participantID":"jvjzonrhvtuylh3c6pgq801zp3m3f5ka","conditionNumber":"expected"},{"rt":3296,"responses":"{\"Q0\":7}","trial_type":"survey-likert","trial_index":45,"time_elapsed":261615,"internal_node_id":"0.0-9.4-1.4","responseType":"finish","participantID":"jvjzonrhvtuylh3c6pgq801zp3m3f5ka","conditionNumber":"expected"},{"rt":null,"stimulus":"\u003cp\u003eNow we will show you another configuration of the anagram \u003cbr\u003e\u003cbr\u003e\u003ccenter\u003e2 more to go\u003c/center\u003e\u003c/p\u003e","key_press":null,"trial_type":"html-keyboard-response","trial_index":46,"time_elapsed":267620,"internal_node_id":"0.0-9.4-2.4","responseType":"finish","participantID":"jvjzonrhvtuylh3c6pgq801zp3m3f5ka","conditionNumber":"expected"},{"rt":null,"stimulus":"\u003cp\u003e\u003ch1\u003eLAAKWJY\u003c/h1\u003e\u003c/p\u003e","key_press":null,"trial_type":"html-keyboard-response","trial_index":47,"time_elapsed":271622,"internal_node_id":"0.0-9.5-0.5","responseType":"finish","participantID":"jvjzonrhvtuylh3c6pgq801zp3m3f5ka","conditionNumber":"expected"},{"rt":1902,"responses":"{\"Q0\":9}","trial_type":"survey-likert","trial_index":48,"time_elapsed":273526,"internal_node_id":"0.0-9.5-1.5","responseType":"finish","participantID":"jvjzonrhvtuylh3c6pgq801zp3m3f5ka","conditionNumber":"expected"},{"rt":null,"stimulus":"\u003cp\u003eNow we will show you another configuration of the anagram \u003cbr\u003e\u003cbr\u003e\u003ccenter\u003e1 more to go\u003c/center\u003e\u003c/p\u003e","key_press":null,"trial_type":"html-keyboard-response","trial_index":49,"time_elapsed":279527,"internal_node_id":"0.0-9.5-2.5","responseType":"finish","participantID":"jvjzonrhvtuylh3c6pgq801zp3m3f5ka","conditionNumber":"expected"},{"rt":null,"stimulus":"\u003cp\u003e\u003ch1\u003eWJYAKAL\u003c/h1\u003e\u003c/p\u003e","key_press":null,"trial_type":"html-keyboard-response","trial_index":50,"time_elapsed":283530,"internal_node_id":"0.0-9.6-0.6","responseType":"finish","participantID":"jvjzonrhvtuylh3c6pgq801zp3m3f5ka","conditionNumber":"expected"},{"rt":1952,"responses":"{\"Q0\":9}","trial_type":"survey-likert","trial_index":51,"time_elapsed":285484,"internal_node_id":"0.0-9.6-1.6","responseType":"finish","participantID":"jvjzonrhvtuylh3c6pgq801zp3m3f5ka","conditionNumber":"expected"},{"rt":null,"stimulus":"\u003cp\u003eWe will now show you a much \u003cb\u003eeasier\u003c/b\u003e configuration of this anagram\u003c/p\u003e","key_press":null,"trial_type":"html-keyboard-response","trial_index":52,"time_elapsed":291488,"internal_node_id":"0.0-9.6-2.6","responseType":"finish","participantID":"jvjzonrhvtuylh3c6pgq801zp3m3f5ka","conditionNumber":"expected"},{"rt":null,"stimulus":"\u003cp\u003e\u003ch1\u003eJAWYALK\u003c/h1\u003e\u003c/p\u003e","key_press":null,"trial_type":"html-keyboard-response","trial_index":53,"time_elapsed":295493,"internal_node_id":"0.0-9.7-0.7","responseType":"finish","participantID":"jvjzonrhvtuylh3c6pgq801zp3m3f5ka","conditionNumber":"expected"},{"rt":3589,"responses":"{\"Q0\":9}","trial_type":"survey-likert","trial_index":54,"time_elapsed":299083,"internal_node_id":"0.0-9.7-1.7","responseType":"finish","participantID":"jvjzonrhvtuylh3c6pgq801zp3m3f5ka","conditionNumber":"expected"},{"rt":null,"stimulus":"\u003cp\u003eNow we will show you another configuration of the anagram \u003cbr\u003e\u003cbr\u003e\u003ccenter\u003e-1 more to go\u003c/center\u003e\u003c/p\u003e","key_press":null,"trial_type":"html-keyboard-response","trial_index":55,"time_elapsed":299086,"internal_node_id":"0.0-9.7-2.7","responseType":"finish","participantID":"jvjzonrhvtuylh3c6pgq801zp3m3f5ka","conditionNumber":"expected"},{"rt":4347,"responses":"{\"Q0\":6}","trial_type":"survey-likert","trial_index":56,"time_elapsed":303435,"internal_node_id":"0.0-10.0","responseType":"finish","participantID":"jvjzonrhvtuylh3c6pgq801zp3m3f5ka","conditionNumber":"expected"}],"__v":0}
{"_id":{"$oid":"5d6ea1e873b3740004c3f52a"},"data":{"responseType":"start","participantID":"7pkejkkuofrrgx4yfgemehfklxa9p18f","conditionNumber":"unexpected"},"__v":0}
