{"_id":{"$oid":"5d4ca78daae0e500046eab31"},"data":{"responseType":"start","participantID":"tlkdmkrf040s57dr1db36gw8w727rbfc","anagrams_seen":"TEH","anagrams_answers":"THE"},"__v":0}
{"_id":{"$oid":"5d4ca790aae0e500046eab32"},"data":{"responseType":"start","participantID":"vlduehsx0kutrpnv54soqcxztpgx8qty","anagrams_seen":"SROT","anagrams_answers":"SORT"},"__v":0}
{"_id":{"$oid":"5d4ca7a8aae0e500046eab33"},"data":[{"rt":41737,"responses":"{\"Q0\":\" I consent to participate\"}","trial_type":"survey-multi-choice","trial_index":0,"time_elapsed":41740,"internal_node_id":"0.0-0.0","responseType":"finish","participantID":"vlduehsx0kutrpnv54soqcxztpgx8qty","anagrams_seen":"SROT","anagrams_answers":"SORT"},{"trial_type":"call-function","trial_index":1,"time_elapsed":41745,"internal_node_id":"0.0-1.0","responseType":"finish","participantID":"vlduehsx0kutrpnv54soqcxztpgx8qty","anagrams_seen":"SROT","anagrams_answers":"SORT"},{"view_history":"[{\"page_index\":0,\"viewing_time\":1392},{\"page_index\":1,\"viewing_time\":1868}]","rt":3260,"trial_type":"instructions","trial_index":2,"time_elapsed":45005,"internal_node_id":"0.0-2.0","responseType":"finish","participantID":"vlduehsx0kutrpnv54soqcxztpgx8qty","anagrams_seen":"SROT","anagrams_answers":"SORT"},{"rt":4966,"stimulus":"\u003cblockquote\u003e\n  \u003cp\u003eNow the anagram will be shown to you. \u003cbr\u003e\u003cbr\u003e Press 'v' to view the anagram.\u003c/p\u003e\n\u003c/blockquote\u003e","key_press":86,"trial_type":"html-keyboard-response","trial_index":3,"time_elapsed":49972,"internal_node_id":"0.0-3.0","responseType":"finish","participantID":"vlduehsx0kutrpnv54soqcxztpgx8qty","anagrams_seen":"SROT","anagrams_answers":"SORT"},{"rt":null,"stimulus":"\u003cb\u003e\u003ccenter\u003e\u003ch2\u003e\u003cp\u003eSROT\u003c/p\u003e\u003c/h2\u003e\u003c/center\u003e\u003c/b\u003e","key_press":null,"trial_type":"html-keyboard-response","trial_index":4,"time_elapsed":50476,"internal_node_id":"0.0-4.0","responseType":"finish","participantID":"vlduehsx0kutrpnv54soqcxztpgx8qty","anagrams_seen":"SROT","anagrams_answers":"SORT"},{"rt":4832.380000007106,"response":"0.4","stimulus":"\u003cp\u003eHow long do you think it will take you to solve this anagram?\u003c/p\u003e","trial_type":"html-slider-response","trial_index":5,"time_elapsed":55309,"internal_node_id":"0.0-5.0","responseType":"finish","participantID":"vlduehsx0kutrpnv54soqcxztpgx8qty","anagrams_seen":"SROT","anagrams_answers":"SORT"},{"rt":5390,"responses":"{\"Q0\":\"sort\"}","trial_type":"survey-text","trial_index":6,"time_elapsed":60700,"internal_node_id":"0.0-6.0-0.0","responseType":"finish","participantID":"vlduehsx0kutrpnv54soqcxztpgx8qty","anagrams_seen":"SROT","anagrams_answers":"SORT"},{"rt":5921,"responses":"{\"Q0\":3}","trial_type":"survey-likert","trial_index":7,"time_elapsed":66622,"internal_node_id":"0.0-7.0-0.0","responseType":"finish","participantID":"vlduehsx0kutrpnv54soqcxztpgx8qty","anagrams_seen":"SROT","anagrams_answers":"SORT"}],"__v":0}
{"_id":{"$oid":"5d4ca7ceaae0e500046eab34"},"data":{"responseType":"start","participantID":"dqe9xp8xoyphnmhye3rxwe2nmgwxk5mz","anagrams_seen":"WROD","anagrams_answers":"WORD"},"__v":0}
{"_id":{"$oid":"5d4ca7d2aae0e500046eab35"},"data":[{"rt":18124,"responses":"{\"Q0\":\" I consent to participate\"}","trial_type":"survey-multi-choice","trial_index":0,"time_elapsed":18129,"internal_node_id":"0.0-0.0","responseType":"finish","participantID":"tlkdmkrf040s57dr1db36gw8w727rbfc","anagrams_seen":"TEH","anagrams_answers":"THE"},{"trial_type":"call-function","trial_index":1,"time_elapsed":18132,"internal_node_id":"0.0-1.0","responseType":"finish","participantID":"tlkdmkrf040s57dr1db36gw8w727rbfc","anagrams_seen":"TEH","anagrams_answers":"THE"},{"view_history":"[{\"page_index\":0,\"viewing_time\":15685},{\"page_index\":1,\"viewing_time\":19304}]","rt":34990,"trial_type":"instructions","trial_index":2,"time_elapsed":53122,"internal_node_id":"0.0-2.0","responseType":"finish","participantID":"tlkdmkrf040s57dr1db36gw8w727rbfc","anagrams_seen":"TEH","anagrams_answers":"THE"},{"rt":8710,"stimulus":"\u003cblockquote\u003e\n  \u003cp\u003eNow the anagram will be shown to you. \u003cbr\u003e\u003cbr\u003e Press 'v' to view the anagram.\u003c/p\u003e\n\u003c/blockquote\u003e","key_press":86,"trial_type":"html-keyboard-response","trial_index":3,"time_elapsed":61832,"internal_node_id":"0.0-3.0","responseType":"finish","participantID":"tlkdmkrf040s57dr1db36gw8w727rbfc","anagrams_seen":"TEH","anagrams_answers":"THE"},{"rt":null,"stimulus":"\u003cb\u003e\u003ccenter\u003e\u003ch2\u003e\u003cp\u003eTEH\u003c/p\u003e\u003c/h2\u003e\u003c/center\u003e\u003c/b\u003e","key_press":null,"trial_type":"html-keyboard-response","trial_index":4,"time_elapsed":62336,"internal_node_id":"0.0-4.0","responseType":"finish","participantID":"tlkdmkrf040s57dr1db36gw8w727rbfc","anagrams_seen":"TEH","anagrams_answers":"THE"},{"rt":5183.770000003278,"response":"0","stimulus":"\u003cp\u003eHow long do you think it will take you to solve this anagram?\u003c/p\u003e","trial_type":"html-slider-response","trial_index":5,"time_elapsed":67521,"internal_node_id":"0.0-5.0","responseType":"finish","participantID":"tlkdmkrf040s57dr1db36gw8w727rbfc","anagrams_seen":"TEH","anagrams_answers":"THE"},{"rt":5495,"responses":"{\"Q0\":\"the\"}","trial_type":"survey-text","trial_index":6,"time_elapsed":73017,"internal_node_id":"0.0-6.0-0.0","responseType":"finish","participantID":"tlkdmkrf040s57dr1db36gw8w727rbfc","anagrams_seen":"TEH","anagrams_answers":"THE"},{"rt":14486,"responses":"{\"Q0\":6}","trial_type":"survey-likert","trial_index":7,"time_elapsed":87506,"internal_node_id":"0.0-7.0-0.0","responseType":"finish","participantID":"tlkdmkrf040s57dr1db36gw8w727rbfc","anagrams_seen":"TEH","anagrams_answers":"THE"}],"__v":0}
{"_id":{"$oid":"5d4ca7e0aae0e500046eab36"},"data":{"responseType":"start","participantID":"tynyoxtyhtqed2r0ckvps7wlnoxj0and","anagrams_seen":"VLVOO","anagrams_answers":"VOLVO"},"__v":0}
{"_id":{"$oid":"5d4ca7f8aae0e500046eab37"},"data":[{"rt":13554,"responses":"{\"Q0\":\" I consent to participate\"}","trial_type":"survey-multi-choice","trial_index":0,"time_elapsed":13559,"internal_node_id":"0.0-0.0","responseType":"finish","participantID":"dqe9xp8xoyphnmhye3rxwe2nmgwxk5mz","anagrams_seen":"WROD","anagrams_answers":"WORD"},{"trial_type":"call-function","trial_index":1,"time_elapsed":13562,"internal_node_id":"0.0-1.0","responseType":"finish","participantID":"dqe9xp8xoyphnmhye3rxwe2nmgwxk5mz","anagrams_seen":"WROD","anagrams_answers":"WORD"},{"view_history":"[{\"page_index\":0,\"viewing_time\":7488},{\"page_index\":1,\"viewing_time\":9884}]","rt":17372,"trial_type":"instructions","trial_index":2,"time_elapsed":30935,"internal_node_id":"0.0-2.0","responseType":"finish","participantID":"dqe9xp8xoyphnmhye3rxwe2nmgwxk5mz","anagrams_seen":"WROD","anagrams_answers":"WORD"},{"rt":2564,"stimulus":"\u003cblockquote\u003e\n  \u003cp\u003eNow the anagram will be shown to you. \u003cbr\u003e\u003cbr\u003e Press 'v' to view the anagram.\u003c/p\u003e\n\u003c/blockquote\u003e","key_press":86,"trial_type":"html-keyboard-response","trial_index":3,"time_elapsed":33499,"internal_node_id":"0.0-3.0","responseType":"finish","participantID":"dqe9xp8xoyphnmhye3rxwe2nmgwxk5mz","anagrams_seen":"WROD","anagrams_answers":"WORD"},{"rt":null,"stimulus":"\u003cb\u003e\u003ccenter\u003e\u003ch2\u003e\u003cp\u003eWROD\u003c/p\u003e\u003c/h2\u003e\u003c/center\u003e\u003c/b\u003e","key_press":null,"trial_type":"html-keyboard-response","trial_index":4,"time_elapsed":34003,"internal_node_id":"0.0-4.0","responseType":"finish","participantID":"dqe9xp8xoyphnmhye3rxwe2nmgwxk5mz","anagrams_seen":"WROD","anagrams_answers":"WORD"},{"rt":4029.700000071898,"response":"0","stimulus":"\u003cp\u003eHow long do you think it will take you to solve this anagram?\u003c/p\u003e","trial_type":"html-slider-response","trial_index":5,"time_elapsed":38034,"internal_node_id":"0.0-5.0","responseType":"finish","participantID":"dqe9xp8xoyphnmhye3rxwe2nmgwxk5mz","anagrams_seen":"WROD","anagrams_answers":"WORD"},{"rt":3839,"responses":"{\"Q0\":\"word\"}","trial_type":"survey-text","trial_index":6,"time_elapsed":41874,"internal_node_id":"0.0-6.0-0.0","responseType":"finish","participantID":"dqe9xp8xoyphnmhye3rxwe2nmgwxk5mz","anagrams_seen":"WROD","anagrams_answers":"WORD"},{"rt":14017,"responses":"{\"Q0\":6}","trial_type":"survey-likert","trial_index":7,"time_elapsed":55893,"internal_node_id":"0.0-7.0-0.0","responseType":"finish","participantID":"dqe9xp8xoyphnmhye3rxwe2nmgwxk5mz","anagrams_seen":"WROD","anagrams_answers":"WORD"}],"__v":0}
{"_id":{"$oid":"5d4ca87daae0e500046eab38"},"data":[{"rt":34316,"responses":"{\"Q0\":\" I consent to participate\"}","trial_type":"survey-multi-choice","trial_index":0,"time_elapsed":34334,"internal_node_id":"0.0-0.0","responseType":"finish","participantID":"tynyoxtyhtqed2r0ckvps7wlnoxj0and","anagrams_seen":"VLVOO","anagrams_answers":"VOLVO"},{"trial_type":"call-function","trial_index":1,"time_elapsed":34413,"internal_node_id":"0.0-1.0","responseType":"finish","participantID":"tynyoxtyhtqed2r0ckvps7wlnoxj0and","anagrams_seen":"VLVOO","anagrams_answers":"VOLVO"},{"view_history":"[{\"page_index\":0,\"viewing_time\":31866},{\"page_index\":1,\"viewing_time\":66188}]","rt":98055,"trial_type":"instructions","trial_index":2,"time_elapsed":132469,"internal_node_id":"0.0-2.0","responseType":"finish","participantID":"tynyoxtyhtqed2r0ckvps7wlnoxj0and","anagrams_seen":"VLVOO","anagrams_answers":"VOLVO"},{"rt":7119,"stimulus":"\u003cblockquote\u003e\n  \u003cp\u003eNow the anagram will be shown to you. \u003cbr\u003e\u003cbr\u003e Press 'v' to view the anagram.\u003c/p\u003e\n\u003c/blockquote\u003e","key_press":86,"trial_type":"html-keyboard-response","trial_index":3,"time_elapsed":139596,"internal_node_id":"0.0-3.0","responseType":"finish","participantID":"tynyoxtyhtqed2r0ckvps7wlnoxj0and","anagrams_seen":"VLVOO","anagrams_answers":"VOLVO"},{"rt":null,"stimulus":"\u003cb\u003e\u003ccenter\u003e\u003ch2\u003e\u003cp\u003eVLVOO\u003c/p\u003e\u003c/h2\u003e\u003c/center\u003e\u003c/b\u003e","key_press":null,"trial_type":"html-keyboard-response","trial_index":4,"time_elapsed":140147,"internal_node_id":"0.0-4.0","responseType":"finish","participantID":"tynyoxtyhtqed2r0ckvps7wlnoxj0and","anagrams_seen":"VLVOO","anagrams_answers":"VOLVO"},{"rt":10753.130000000034,"response":"2.8","stimulus":"\u003cp\u003eHow long do you think it will take you to solve this anagram?\u003c/p\u003e","trial_type":"html-slider-response","trial_index":5,"time_elapsed":150939,"internal_node_id":"0.0-5.0","responseType":"finish","participantID":"tynyoxtyhtqed2r0ckvps7wlnoxj0and","anagrams_seen":"VLVOO","anagrams_answers":"VOLVO"},{"rt":8614,"responses":"{\"Q0\":\"VOLVO\"}","trial_type":"survey-text","trial_index":6,"time_elapsed":159572,"internal_node_id":"0.0-6.0-0.0","responseType":"finish","participantID":"tynyoxtyhtqed2r0ckvps7wlnoxj0and","anagrams_seen":"VLVOO","anagrams_answers":"VOLVO"},{"rt":32069,"responses":"{\"Q0\":6}","trial_type":"survey-likert","trial_index":7,"time_elapsed":191667,"internal_node_id":"0.0-7.0-0.0","responseType":"finish","participantID":"tynyoxtyhtqed2r0ckvps7wlnoxj0and","anagrams_seen":"VLVOO","anagrams_answers":"VOLVO"}],"__v":0}
{"_id":{"$oid":"5d4caa3caae0e500046eab39"},"data":{"responseType":"start","participantID":"gh2u2spms4gnbksuku4zwo1pvoyuj0k6","anagrams_seen":"SROT","anagrams_answers":"SORT"},"__v":0}
{"_id":{"$oid":"5d4caa5aaae0e500046eab3a"},"data":{"responseType":"start","participantID":"34o8h6veyygbf1319urgmxrdqop5kp60","anagrams_seen":"BLEL","anagrams_answers":"BELL"},"__v":0}
{"_id":{"$oid":"5d4caa6daae0e500046eab3b"},"data":[{"rt":3150,"responses":"{\"Q0\":\" I consent to participate\"}","trial_type":"survey-multi-choice","trial_index":0,"time_elapsed":3162,"internal_node_id":"0.0-0.0","responseType":"finish","participantID":"34o8h6veyygbf1319urgmxrdqop5kp60","anagrams_seen":"BLEL","anagrams_answers":"BELL"},{"trial_type":"call-function","trial_index":1,"time_elapsed":3173,"internal_node_id":"0.0-1.0","responseType":"finish","participantID":"34o8h6veyygbf1319urgmxrdqop5kp60","anagrams_seen":"BLEL","anagrams_answers":"BELL"},{"view_history":"[{\"page_index\":0,\"viewing_time\":1169},{\"page_index\":1,\"viewing_time\":2651}]","rt":3822,"trial_type":"instructions","trial_index":2,"time_elapsed":6996,"internal_node_id":"0.0-2.0","responseType":"finish","participantID":"34o8h6veyygbf1319urgmxrdqop5kp60","anagrams_seen":"BLEL","anagrams_answers":"BELL"},{"rt":2224,"stimulus":"\u003cblockquote\u003e\n  \u003cp\u003eNow the anagram will be shown to you. \u003cbr\u003e\u003cbr\u003e Press 'v' to view the anagram.\u003c/p\u003e\n\u003c/blockquote\u003e","key_press":86,"trial_type":"html-keyboard-response","trial_index":3,"time_elapsed":9224,"internal_node_id":"0.0-3.0","responseType":"finish","participantID":"34o8h6veyygbf1319urgmxrdqop5kp60","anagrams_seen":"BLEL","anagrams_answers":"BELL"},{"rt":null,"stimulus":"\u003cb\u003e\u003ccenter\u003e\u003ch2\u003e\u003cp\u003eBLEL\u003c/p\u003e\u003c/h2\u003e\u003c/center\u003e\u003c/b\u003e","key_press":null,"trial_type":"html-keyboard-response","trial_index":4,"time_elapsed":9736,"internal_node_id":"0.0-4.0","responseType":"finish","participantID":"34o8h6veyygbf1319urgmxrdqop5kp60","anagrams_seen":"BLEL","anagrams_answers":"BELL"},{"rt":1917.1900000656024,"response":"2.3","stimulus":"\u003cp\u003eHow long do you think it will take you to solve this anagram?\u003c/p\u003e","trial_type":"html-slider-response","trial_index":5,"time_elapsed":11657,"internal_node_id":"0.0-5.0","responseType":"finish","participantID":"34o8h6veyygbf1319urgmxrdqop5kp60","anagrams_seen":"BLEL","anagrams_answers":"BELL"},{"rt":4602,"responses":"{\"Q0\":\"NEXT \"}","trial_type":"survey-text","trial_index":6,"time_elapsed":16263,"internal_node_id":"0.0-6.0-0.0","responseType":"finish","participantID":"34o8h6veyygbf1319urgmxrdqop5kp60","anagrams_seen":"BLEL","anagrams_answers":"BELL"},{"rt":2465,"responses":"{\"Q0\":0}","trial_type":"survey-likert","trial_index":7,"time_elapsed":18733,"internal_node_id":"0.0-7.0-0.0","responseType":"finish","participantID":"34o8h6veyygbf1319urgmxrdqop5kp60","anagrams_seen":"BLEL","anagrams_answers":"BELL"}],"__v":0}
{"_id":{"$oid":"5d4caa89aae0e500046eab3c"},"data":[{"rt":3402,"responses":"{\"Q0\":\" I consent to participate\"}","trial_type":"survey-multi-choice","trial_index":0,"time_elapsed":3406,"internal_node_id":"0.0-0.0","responseType":"finish","participantID":"gh2u2spms4gnbksuku4zwo1pvoyuj0k6","anagrams_seen":"SROT","anagrams_answers":"SORT"},{"trial_type":"call-function","trial_index":1,"time_elapsed":3410,"internal_node_id":"0.0-1.0","responseType":"finish","participantID":"gh2u2spms4gnbksuku4zwo1pvoyuj0k6","anagrams_seen":"SROT","anagrams_answers":"SORT"},{"view_history":"[{\"page_index\":0,\"viewing_time\":5319},{\"page_index\":1,\"viewing_time\":7420}]","rt":12740,"trial_type":"instructions","trial_index":2,"time_elapsed":16150,"internal_node_id":"0.0-2.0","responseType":"finish","participantID":"gh2u2spms4gnbksuku4zwo1pvoyuj0k6","anagrams_seen":"SROT","anagrams_answers":"SORT"},{"rt":2288,"stimulus":"\u003cblockquote\u003e\n  \u003cp\u003eNow the anagram will be shown to you. \u003cbr\u003e\u003cbr\u003e Press 'v' to view the anagram.\u003c/p\u003e\n\u003c/blockquote\u003e","key_press":86,"trial_type":"html-keyboard-response","trial_index":3,"time_elapsed":18439,"internal_node_id":"0.0-3.0","responseType":"finish","participantID":"gh2u2spms4gnbksuku4zwo1pvoyuj0k6","anagrams_seen":"SROT","anagrams_answers":"SORT"},{"rt":null,"stimulus":"\u003cb\u003e\u003ccenter\u003e\u003ch2\u003e\u003cp\u003eSROT\u003c/p\u003e\u003c/h2\u003e\u003c/center\u003e\u003c/b\u003e","key_press":null,"trial_type":"html-keyboard-response","trial_index":4,"time_elapsed":18951,"internal_node_id":"0.0-4.0","responseType":"finish","participantID":"gh2u2spms4gnbksuku4zwo1pvoyuj0k6","anagrams_seen":"SROT","anagrams_answers":"SORT"},{"rt":9947.990000015125,"response":"2.5","stimulus":"\u003cp\u003eHow long do you think it will take you to solve this anagram?\u003c/p\u003e","trial_type":"html-slider-response","trial_index":5,"time_elapsed":28901,"internal_node_id":"0.0-5.0","responseType":"finish","participantID":"gh2u2spms4gnbksuku4zwo1pvoyuj0k6","anagrams_seen":"SROT","anagrams_answers":"SORT"},{"rt":16701,"responses":"{\"Q0\":\"rots\"}","trial_type":"survey-text","trial_index":6,"time_elapsed":45603,"internal_node_id":"0.0-6.0-0.0","responseType":"finish","participantID":"gh2u2spms4gnbksuku4zwo1pvoyuj0k6","anagrams_seen":"SROT","anagrams_answers":"SORT"},{"rt":20137,"responses":"{\"Q0\":\"stor\"}","trial_type":"survey-text","trial_index":7,"time_elapsed":67296,"internal_node_id":"0.0-6.1-0.1","responseType":"finish","participantID":"gh2u2spms4gnbksuku4zwo1pvoyuj0k6","anagrams_seen":"SROT","anagrams_answers":"SORT"},{"rt":4147,"responses":"{\"Q0\":\"sort\"}","trial_type":"survey-text","trial_index":8,"time_elapsed":72650,"internal_node_id":"0.0-6.2-0.2","responseType":"finish","participantID":"gh2u2spms4gnbksuku4zwo1pvoyuj0k6","anagrams_seen":"SROT","anagrams_answers":"SORT"},{"rt":7268,"responses":"{\"Q0\":5}","trial_type":"survey-likert","trial_index":9,"time_elapsed":79920,"internal_node_id":"0.0-7.0-0.0","responseType":"finish","participantID":"gh2u2spms4gnbksuku4zwo1pvoyuj0k6","anagrams_seen":"SROT","anagrams_answers":"SORT"}],"__v":0}
{"_id":{"$oid":"5d4cab62aae0e500046eab3d"},"data":{"responseType":"start","participantID":"6vcq10s7yxl4a3833sl45hzwdpqn1p0y","anagrams_seen":"PREOK","anagrams_answers":"POKER"},"__v":0}
{"_id":{"$oid":"5d4caba9aae0e500046eab3e"},"data":[{"rt":3967,"responses":"{\"Q0\":\" I consent to participate\"}","trial_type":"survey-multi-choice","trial_index":0,"time_elapsed":3975,"internal_node_id":"0.0-0.0","responseType":"finish","participantID":"6vcq10s7yxl4a3833sl45hzwdpqn1p0y","anagrams_seen":"PREOK","anagrams_answers":"POKER"},{"trial_type":"call-function","trial_index":1,"time_elapsed":3993,"internal_node_id":"0.0-1.0","responseType":"finish","participantID":"6vcq10s7yxl4a3833sl45hzwdpqn1p0y","anagrams_seen":"PREOK","anagrams_answers":"POKER"},{"view_history":"[{\"page_index\":0,\"viewing_time\":13110},{\"page_index\":1,\"viewing_time\":12962}]","rt":26075,"trial_type":"instructions","trial_index":2,"time_elapsed":30068,"internal_node_id":"0.0-2.0","responseType":"finish","participantID":"6vcq10s7yxl4a3833sl45hzwdpqn1p0y","anagrams_seen":"PREOK","anagrams_answers":"POKER"},{"rt":3062,"stimulus":"\u003cblockquote\u003e\n  \u003cp\u003eNow the anagram will be shown to you. \u003cbr\u003e\u003cbr\u003e Press 'v' to view the anagram.\u003c/p\u003e\n\u003c/blockquote\u003e","key_press":86,"trial_type":"html-keyboard-response","trial_index":3,"time_elapsed":33132,"internal_node_id":"0.0-3.0","responseType":"finish","participantID":"6vcq10s7yxl4a3833sl45hzwdpqn1p0y","anagrams_seen":"PREOK","anagrams_answers":"POKER"},{"rt":null,"stimulus":"\u003cb\u003e\u003ccenter\u003e\u003ch2\u003e\u003cp\u003ePREOK\u003c/p\u003e\u003c/h2\u003e\u003c/center\u003e\u003c/b\u003e","key_press":null,"trial_type":"html-keyboard-response","trial_index":4,"time_elapsed":33644,"internal_node_id":"0.0-4.0","responseType":"finish","participantID":"6vcq10s7yxl4a3833sl45hzwdpqn1p0y","anagrams_seen":"PREOK","anagrams_answers":"POKER"},{"rt":4807.039999999688,"response":"4.6","stimulus":"\u003cp\u003eHow long do you think it will take you to solve this anagram?\u003c/p\u003e","trial_type":"html-slider-response","trial_index":5,"time_elapsed":38454,"internal_node_id":"0.0-5.0","responseType":"finish","participantID":"6vcq10s7yxl4a3833sl45hzwdpqn1p0y","anagrams_seen":"PREOK","anagrams_answers":"POKER"},{"rt":24141,"responses":"{\"Q0\":\"POKER\"}","trial_type":"survey-text","trial_index":6,"time_elapsed":62599,"internal_node_id":"0.0-6.0-0.0","responseType":"finish","participantID":"6vcq10s7yxl4a3833sl45hzwdpqn1p0y","anagrams_seen":"PREOK","anagrams_answers":"POKER"},{"rt":12672,"responses":"{\"Q0\":5}","trial_type":"survey-likert","trial_index":7,"time_elapsed":75276,"internal_node_id":"0.0-7.0-0.0","responseType":"finish","participantID":"6vcq10s7yxl4a3833sl45hzwdpqn1p0y","anagrams_seen":"PREOK","anagrams_answers":"POKER"}],"__v":0}
{"_id":{"$oid":"5d4cabd1aae0e500046eab3f"},"data":{"responseType":"start","participantID":"sc6ckjp8bggrqj53wgry1cwyedqeqsun","anagrams_seen":"VLVOO","anagrams_answers":"VOLVO"},"__v":0}
{"_id":{"$oid":"5d4cac00aae0e500046eab40"},"data":[{"rt":20390,"responses":"{\"Q0\":\" I consent to participate\"}","trial_type":"survey-multi-choice","trial_index":0,"time_elapsed":20394,"internal_node_id":"0.0-0.0","responseType":"finish","participantID":"sc6ckjp8bggrqj53wgry1cwyedqeqsun","anagrams_seen":"VLVOO","anagrams_answers":"VOLVO"},{"trial_type":"call-function","trial_index":1,"time_elapsed":20399,"internal_node_id":"0.0-1.0","responseType":"finish","participantID":"sc6ckjp8bggrqj53wgry1cwyedqeqsun","anagrams_seen":"VLVOO","anagrams_answers":"VOLVO"},{"view_history":"[{\"page_index\":0,\"viewing_time\":7782},{\"page_index\":1,\"viewing_time\":11035}]","rt":18818,"trial_type":"instructions","trial_index":2,"time_elapsed":39217,"internal_node_id":"0.0-2.0","responseType":"finish","participantID":"sc6ckjp8bggrqj53wgry1cwyedqeqsun","anagrams_seen":"VLVOO","anagrams_answers":"VOLVO"},{"rt":2360,"stimulus":"\u003cblockquote\u003e\n  \u003cp\u003eNow the anagram will be shown to you. \u003cbr\u003e\u003cbr\u003e Press 'v' to view the anagram.\u003c/p\u003e\n\u003c/blockquote\u003e","key_press":86,"trial_type":"html-keyboard-response","trial_index":3,"time_elapsed":41578,"internal_node_id":"0.0-3.0","responseType":"finish","participantID":"sc6ckjp8bggrqj53wgry1cwyedqeqsun","anagrams_seen":"VLVOO","anagrams_answers":"VOLVO"},{"rt":null,"stimulus":"\u003cb\u003e\u003ccenter\u003e\u003ch2\u003e\u003cp\u003eVLVOO\u003c/p\u003e\u003c/h2\u003e\u003c/center\u003e\u003c/b\u003e","key_press":null,"trial_type":"html-keyboard-response","trial_index":4,"time_elapsed":42083,"internal_node_id":"0.0-4.0","responseType":"finish","participantID":"sc6ckjp8bggrqj53wgry1cwyedqeqsun","anagrams_seen":"VLVOO","anagrams_answers":"VOLVO"},{"rt":10366.264999989653,"response":"0.4","stimulus":"\u003cp\u003eHow long do you think it will take you to solve this anagram?\u003c/p\u003e","trial_type":"html-slider-response","trial_index":5,"time_elapsed":52451,"internal_node_id":"0.0-5.0","responseType":"finish","participantID":"sc6ckjp8bggrqj53wgry1cwyedqeqsun","anagrams_seen":"VLVOO","anagrams_answers":"VOLVO"},{"rt":4526,"responses":"{\"Q0\":\"Volvo\"}","trial_type":"survey-text","trial_index":6,"time_elapsed":56978,"internal_node_id":"0.0-6.0-0.0","responseType":"finish","participantID":"sc6ckjp8bggrqj53wgry1cwyedqeqsun","anagrams_seen":"VLVOO","anagrams_answers":"VOLVO"},{"rt":9494,"responses":"{\"Q0\":5}","trial_type":"survey-likert","trial_index":7,"time_elapsed":66475,"internal_node_id":"0.0-7.0-0.0","responseType":"finish","participantID":"sc6ckjp8bggrqj53wgry1cwyedqeqsun","anagrams_seen":"VLVOO","anagrams_answers":"VOLVO"}],"__v":0}
{"_id":{"$oid":"5d4cacffaae0e500046eab41"},"data":{"responseType":"start","participantID":"mk8olv9mut5krhs1ukvx61a4faejs5h3","anagrams_seen":"YJAKWLA","anagrams_answers":"JAYWALK"},"__v":0}
{"_id":{"$oid":"5d4cad43aae0e500046eab42"},"data":[{"rt":6772,"responses":"{\"Q0\":\" I consent to participate\"}","trial_type":"survey-multi-choice","trial_index":0,"time_elapsed":6776,"internal_node_id":"0.0-0.0","responseType":"finish","participantID":"mk8olv9mut5krhs1ukvx61a4faejs5h3","anagrams_seen":"YJAKWLA","anagrams_answers":"JAYWALK"},{"trial_type":"call-function","trial_index":1,"time_elapsed":6780,"internal_node_id":"0.0-1.0","responseType":"finish","participantID":"mk8olv9mut5krhs1ukvx61a4faejs5h3","anagrams_seen":"YJAKWLA","anagrams_answers":"JAYWALK"},{"view_history":"[{\"page_index\":0,\"viewing_time\":11262},{\"page_index\":1,\"viewing_time\":4916}]","rt":16178,"trial_type":"instructions","trial_index":2,"time_elapsed":22959,"internal_node_id":"0.0-2.0","responseType":"finish","participantID":"mk8olv9mut5krhs1ukvx61a4faejs5h3","anagrams_seen":"YJAKWLA","anagrams_answers":"JAYWALK"},{"rt":4163,"stimulus":"\u003cblockquote\u003e\n  \u003cp\u003eNow the anagram will be shown to you. \u003cbr\u003e\u003cbr\u003e Press 'v' to view the anagram.\u003c/p\u003e\n\u003c/blockquote\u003e","key_press":86,"trial_type":"html-keyboard-response","trial_index":3,"time_elapsed":27123,"internal_node_id":"0.0-3.0","responseType":"finish","participantID":"mk8olv9mut5krhs1ukvx61a4faejs5h3","anagrams_seen":"YJAKWLA","anagrams_answers":"JAYWALK"},{"rt":null,"stimulus":"\u003cb\u003e\u003ccenter\u003e\u003ch2\u003e\u003cp\u003eYJAKWLA\u003c/p\u003e\u003c/h2\u003e\u003c/center\u003e\u003c/b\u003e","key_press":null,"trial_type":"html-keyboard-response","trial_index":4,"time_elapsed":27648,"internal_node_id":"0.0-4.0","responseType":"finish","participantID":"mk8olv9mut5krhs1ukvx61a4faejs5h3","anagrams_seen":"YJAKWLA","anagrams_answers":"JAYWALK"},{"rt":18212,"response":"4.2","stimulus":"\u003cp\u003eHow long do you think it will take you to solve this anagram?\u003c/p\u003e","trial_type":"html-slider-response","trial_index":5,"time_elapsed":45864,"internal_node_id":"0.0-5.0","responseType":"finish","participantID":"mk8olv9mut5krhs1ukvx61a4faejs5h3","anagrams_seen":"YJAKWLA","anagrams_answers":"JAYWALK"},{"rt":12170,"responses":"{\"Q0\":\"jaywalk\"}","trial_type":"survey-text","trial_index":6,"time_elapsed":58036,"internal_node_id":"0.0-6.0-0.0","responseType":"finish","participantID":"mk8olv9mut5krhs1ukvx61a4faejs5h3","anagrams_seen":"YJAKWLA","anagrams_answers":"JAYWALK"},{"rt":16478,"responses":"{\"Q0\":5}","trial_type":"survey-likert","trial_index":7,"time_elapsed":74517,"internal_node_id":"0.0-7.0-0.0","responseType":"finish","participantID":"mk8olv9mut5krhs1ukvx61a4faejs5h3","anagrams_seen":"YJAKWLA","anagrams_answers":"JAYWALK"}],"__v":0}
{"_id":{"$oid":"5d4cadf0aae0e500046eab43"},"data":{"responseType":"start","participantID":"ctxn1491w55twa17wnywbo3xrkrdwh1g","anagrams_seen":"PONHE","anagrams_answers":"PHONE"},"__v":0}
{"_id":{"$oid":"5d4cae65aae0e500046eab44"},"data":[{"rt":9140,"responses":"{\"Q0\":\" I consent to participate\"}","trial_type":"survey-multi-choice","trial_index":0,"time_elapsed":9144,"internal_node_id":"0.0-0.0","responseType":"finish","participantID":"ctxn1491w55twa17wnywbo3xrkrdwh1g","anagrams_seen":"PONHE","anagrams_answers":"PHONE"},{"trial_type":"call-function","trial_index":1,"time_elapsed":9147,"internal_node_id":"0.0-1.0","responseType":"finish","participantID":"ctxn1491w55twa17wnywbo3xrkrdwh1g","anagrams_seen":"PONHE","anagrams_answers":"PHONE"},{"view_history":"[{\"page_index\":0,\"viewing_time\":18180},{\"page_index\":1,\"viewing_time\":59173}]","rt":77353,"trial_type":"instructions","trial_index":2,"time_elapsed":86501,"internal_node_id":"0.0-2.0","responseType":"finish","participantID":"ctxn1491w55twa17wnywbo3xrkrdwh1g","anagrams_seen":"PONHE","anagrams_answers":"PHONE"},{"rt":11759,"stimulus":"\u003cblockquote\u003e\n  \u003cp\u003eNow the anagram will be shown to you. \u003cbr\u003e\u003cbr\u003e Press 'v' to view the anagram.\u003c/p\u003e\n\u003c/blockquote\u003e","key_press":86,"trial_type":"html-keyboard-response","trial_index":3,"time_elapsed":98262,"internal_node_id":"0.0-3.0","responseType":"finish","participantID":"ctxn1491w55twa17wnywbo3xrkrdwh1g","anagrams_seen":"PONHE","anagrams_answers":"PHONE"},{"rt":null,"stimulus":"\u003cb\u003e\u003ccenter\u003e\u003ch2\u003e\u003cp\u003ePONHE\u003c/p\u003e\u003c/h2\u003e\u003c/center\u003e\u003c/b\u003e","key_press":null,"trial_type":"html-keyboard-response","trial_index":4,"time_elapsed":98767,"internal_node_id":"0.0-4.0","responseType":"finish","participantID":"ctxn1491w55twa17wnywbo3xrkrdwh1g","anagrams_seen":"PONHE","anagrams_answers":"PHONE"},{"rt":5883,"response":"0.4","stimulus":"\u003cp\u003eHow long do you think it will take you to solve this anagram?\u003c/p\u003e","trial_type":"html-slider-response","trial_index":5,"time_elapsed":104653,"internal_node_id":"0.0-5.0","responseType":"finish","participantID":"ctxn1491w55twa17wnywbo3xrkrdwh1g","anagrams_seen":"PONHE","anagrams_answers":"PHONE"},{"rt":5802,"responses":"{\"Q0\":\"phone\"}","trial_type":"survey-text","trial_index":6,"time_elapsed":110458,"internal_node_id":"0.0-6.0-0.0","responseType":"finish","participantID":"ctxn1491w55twa17wnywbo3xrkrdwh1g","anagrams_seen":"PONHE","anagrams_answers":"PHONE"},{"rt":15476,"responses":"{\"Q0\":4}","trial_type":"survey-likert","trial_index":7,"time_elapsed":125935,"internal_node_id":"0.0-7.0-0.0","responseType":"finish","participantID":"ctxn1491w55twa17wnywbo3xrkrdwh1g","anagrams_seen":"PONHE","anagrams_answers":"PHONE"}],"__v":0}
{"_id":{"$oid":"5d4cae72aae0e500046eab45"},"data":{"responseType":"start","participantID":"12yrqeu3lvfu9e7pdk8qqjy8pxg1jofs","anagrams_seen":"CTA","anagrams_answers":"CAT"},"__v":0}
{"_id":{"$oid":"5d4caee2aae0e500046eab46"},"data":[{"rt":26085,"responses":"{\"Q0\":\" I consent to participate\"}","trial_type":"survey-multi-choice","trial_index":0,"time_elapsed":26089,"internal_node_id":"0.0-0.0","responseType":"finish","participantID":"12yrqeu3lvfu9e7pdk8qqjy8pxg1jofs","anagrams_seen":"CTA","anagrams_answers":"CAT"},{"trial_type":"call-function","trial_index":1,"time_elapsed":26094,"internal_node_id":"0.0-1.0","responseType":"finish","participantID":"12yrqeu3lvfu9e7pdk8qqjy8pxg1jofs","anagrams_seen":"CTA","anagrams_answers":"CAT"},{"view_history":"[{\"page_index\":0,\"viewing_time\":24253},{\"page_index\":1,\"viewing_time\":25777}]","rt":50031,"trial_type":"instructions","trial_index":2,"time_elapsed":76125,"internal_node_id":"0.0-2.0","responseType":"finish","participantID":"12yrqeu3lvfu9e7pdk8qqjy8pxg1jofs","anagrams_seen":"CTA","anagrams_answers":"CAT"},{"rt":4913,"stimulus":"\u003cblockquote\u003e\n  \u003cp\u003eNow the anagram will be shown to you. \u003cbr\u003e\u003cbr\u003e Press 'v' to view the anagram.\u003c/p\u003e\n\u003c/blockquote\u003e","key_press":86,"trial_type":"html-keyboard-response","trial_index":3,"time_elapsed":81039,"internal_node_id":"0.0-3.0","responseType":"finish","participantID":"12yrqeu3lvfu9e7pdk8qqjy8pxg1jofs","anagrams_seen":"CTA","anagrams_answers":"CAT"},{"rt":null,"stimulus":"\u003cb\u003e\u003ccenter\u003e\u003ch2\u003e\u003cp\u003eCTA\u003c/p\u003e\u003c/h2\u003e\u003c/center\u003e\u003c/b\u003e","key_press":null,"trial_type":"html-keyboard-response","trial_index":4,"time_elapsed":81548,"internal_node_id":"0.0-4.0","responseType":"finish","participantID":"12yrqeu3lvfu9e7pdk8qqjy8pxg1jofs","anagrams_seen":"CTA","anagrams_answers":"CAT"},{"rt":6278.070000000298,"response":"0.7","stimulus":"\u003cp\u003eHow long do you think it will take you to solve this anagram?\u003c/p\u003e","trial_type":"html-slider-response","trial_index":5,"time_elapsed":87829,"internal_node_id":"0.0-5.0","responseType":"finish","participantID":"12yrqeu3lvfu9e7pdk8qqjy8pxg1jofs","anagrams_seen":"CTA","anagrams_answers":"CAT"},{"rt":6656,"responses":"{\"Q0\":\"act\"}","trial_type":"survey-text","trial_index":6,"time_elapsed":94487,"internal_node_id":"0.0-6.0-0.0","responseType":"finish","participantID":"12yrqeu3lvfu9e7pdk8qqjy8pxg1jofs","anagrams_seen":"CTA","anagrams_answers":"CAT"},{"rt":4978,"responses":"{\"Q0\":\"cat\"}","trial_type":"survey-text","trial_index":7,"time_elapsed":119548,"internal_node_id":"0.0-6.1-0.1","responseType":"finish","participantID":"12yrqeu3lvfu9e7pdk8qqjy8pxg1jofs","anagrams_seen":"CTA","anagrams_answers":"CAT"},{"rt":19072,"responses":"{\"Q0\":0}","trial_type":"survey-likert","trial_index":8,"time_elapsed":138622,"internal_node_id":"0.0-7.0-0.0","responseType":"finish","participantID":"12yrqeu3lvfu9e7pdk8qqjy8pxg1jofs","anagrams_seen":"CTA","anagrams_answers":"CAT"}],"__v":0}
{"_id":{"$oid":"5d4caf4faae0e500046eab47"},"data":{"responseType":"start","participantID":"yfds91cfhclo4e6yu219kjjnrs6nncsc","anagrams_seen":"SROT","anagrams_answers":"SORT"},"__v":0}
{"_id":{"$oid":"5d4caf64aae0e500046eab48"},"data":{"responseType":"start","participantID":"08lr2javg1da99rgy7mcjfut34aa185o","anagrams_seen":"VLVOO","anagrams_answers":"VOLVO"},"__v":0}
{"_id":{"$oid":"5d4caf93aae0e500046eab49"},"data":[{"rt":3369,"responses":"{\"Q0\":\" I consent to participate\"}","trial_type":"survey-multi-choice","trial_index":0,"time_elapsed":3372,"internal_node_id":"0.0-0.0","responseType":"finish","participantID":"08lr2javg1da99rgy7mcjfut34aa185o","anagrams_seen":"VLVOO","anagrams_answers":"VOLVO"},{"trial_type":"call-function","trial_index":1,"time_elapsed":3376,"internal_node_id":"0.0-1.0","responseType":"finish","participantID":"08lr2javg1da99rgy7mcjfut34aa185o","anagrams_seen":"VLVOO","anagrams_answers":"VOLVO"},{"view_history":"[{\"page_index\":0,\"viewing_time\":12046},{\"page_index\":1,\"viewing_time\":7471}]","rt":19518,"trial_type":"instructions","trial_index":2,"time_elapsed":22894,"internal_node_id":"0.0-2.0","responseType":"finish","participantID":"08lr2javg1da99rgy7mcjfut34aa185o","anagrams_seen":"VLVOO","anagrams_answers":"VOLVO"},{"rt":2382,"stimulus":"\u003cblockquote\u003e\n  \u003cp\u003eNow the anagram will be shown to you. \u003cbr\u003e\u003cbr\u003e Press 'v' to view the anagram.\u003c/p\u003e\n\u003c/blockquote\u003e","key_press":86,"trial_type":"html-keyboard-response","trial_index":3,"time_elapsed":25276,"internal_node_id":"0.0-3.0","responseType":"finish","participantID":"08lr2javg1da99rgy7mcjfut34aa185o","anagrams_seen":"VLVOO","anagrams_answers":"VOLVO"},{"rt":null,"stimulus":"\u003cb\u003e\u003ccenter\u003e\u003ch2\u003e\u003cp\u003eVLVOO\u003c/p\u003e\u003c/h2\u003e\u003c/center\u003e\u003c/b\u003e","key_press":null,"trial_type":"html-keyboard-response","trial_index":4,"time_elapsed":25780,"internal_node_id":"0.0-4.0","responseType":"finish","participantID":"08lr2javg1da99rgy7mcjfut34aa185o","anagrams_seen":"VLVOO","anagrams_answers":"VOLVO"},{"rt":7144.994999980554,"response":"3.6","stimulus":"\u003cp\u003eHow long do you think it will take you to solve this anagram?\u003c/p\u003e","trial_type":"html-slider-response","trial_index":5,"time_elapsed":32927,"internal_node_id":"0.0-5.0","responseType":"finish","participantID":"08lr2javg1da99rgy7mcjfut34aa185o","anagrams_seen":"VLVOO","anagrams_answers":"VOLVO"},{"rt":10495,"responses":"{\"Q0\":\"volvo\"}","trial_type":"survey-text","trial_index":6,"time_elapsed":43422,"internal_node_id":"0.0-6.0-0.0","responseType":"finish","participantID":"08lr2javg1da99rgy7mcjfut34aa185o","anagrams_seen":"VLVOO","anagrams_answers":"VOLVO"},{"rt":7028,"responses":"{\"Q0\":5}","trial_type":"survey-likert","trial_index":7,"time_elapsed":50451,"internal_node_id":"0.0-7.0-0.0","responseType":"finish","participantID":"08lr2javg1da99rgy7mcjfut34aa185o","anagrams_seen":"VLVOO","anagrams_answers":"VOLVO"}],"__v":0}
{"_id":{"$oid":"5d4cb080aae0e500046eab4a"},"data":{"responseType":"start","participantID":"aohh89avuvzdgdqah9qrysrtk3qtf14d","anagrams_seen":"HNATUYG","anagrams_answers":"NAUGHTY"},"__v":0}
{"_id":{"$oid":"5d4cb0feaae0e500046eab4b"},"data":[{"rt":5332,"responses":"{\"Q0\":\" I consent to participate\"}","trial_type":"survey-multi-choice","trial_index":0,"time_elapsed":5348,"internal_node_id":"0.0-0.0","responseType":"finish","participantID":"aohh89avuvzdgdqah9qrysrtk3qtf14d","anagrams_seen":"HNATUYG","anagrams_answers":"NAUGHTY"},{"trial_type":"call-function","trial_index":1,"time_elapsed":5369,"internal_node_id":"0.0-1.0","responseType":"finish","participantID":"aohh89avuvzdgdqah9qrysrtk3qtf14d","anagrams_seen":"HNATUYG","anagrams_answers":"NAUGHTY"},{"view_history":"[{\"page_index\":0,\"viewing_time\":12787},{\"page_index\":1,\"viewing_time\":10127}]","rt":22916,"trial_type":"instructions","trial_index":2,"time_elapsed":28287,"internal_node_id":"0.0-2.0","responseType":"finish","participantID":"aohh89avuvzdgdqah9qrysrtk3qtf14d","anagrams_seen":"HNATUYG","anagrams_answers":"NAUGHTY"},{"rt":2373,"stimulus":"\u003cblockquote\u003e\n  \u003cp\u003eNow the anagram will be shown to you. \u003cbr\u003e\u003cbr\u003e Press 'v' to view the anagram.\u003c/p\u003e\n\u003c/blockquote\u003e","key_press":86,"trial_type":"html-keyboard-response","trial_index":3,"time_elapsed":30664,"internal_node_id":"0.0-3.0","responseType":"finish","participantID":"aohh89avuvzdgdqah9qrysrtk3qtf14d","anagrams_seen":"HNATUYG","anagrams_answers":"NAUGHTY"},{"rt":null,"stimulus":"\u003cb\u003e\u003ccenter\u003e\u003ch2\u003e\u003cp\u003eHNATUYG\u003c/p\u003e\u003c/h2\u003e\u003c/center\u003e\u003c/b\u003e","key_press":null,"trial_type":"html-keyboard-response","trial_index":4,"time_elapsed":31179,"internal_node_id":"0.0-4.0","responseType":"finish","participantID":"aohh89avuvzdgdqah9qrysrtk3qtf14d","anagrams_seen":"HNATUYG","anagrams_answers":"NAUGHTY"},{"rt":8065.480000106618,"response":"4","stimulus":"\u003cp\u003eHow long do you think it will take you to solve this anagram?\u003c/p\u003e","trial_type":"html-slider-response","trial_index":5,"time_elapsed":39250,"internal_node_id":"0.0-5.0","responseType":"finish","participantID":"aohh89avuvzdgdqah9qrysrtk3qtf14d","anagrams_seen":"HNATUYG","anagrams_answers":"NAUGHTY"},{"rt":78917,"responses":"{\"Q0\":\"NAUGHTY\"}","trial_type":"survey-text","trial_index":6,"time_elapsed":118172,"internal_node_id":"0.0-6.0-0.0","responseType":"finish","participantID":"aohh89avuvzdgdqah9qrysrtk3qtf14d","anagrams_seen":"HNATUYG","anagrams_answers":"NAUGHTY"},{"rt":13731,"responses":"{\"Q0\":4}","trial_type":"survey-likert","trial_index":7,"time_elapsed":131909,"internal_node_id":"0.0-7.0-0.0","responseType":"finish","participantID":"aohh89avuvzdgdqah9qrysrtk3qtf14d","anagrams_seen":"HNATUYG","anagrams_answers":"NAUGHTY"}],"__v":0}
{"_id":{"$oid":"5d4cb220aae0e500046eab4c"},"data":{"responseType":"start","participantID":"5n1qzwpdyesavofzd7ocjtdp31ppxers","anagrams_seen":"PITN","anagrams_answers":"PINT"},"__v":0}
{"_id":{"$oid":"5d4cb245aae0e500046eab4d"},"data":[{"rt":6358,"responses":"{\"Q0\":\" I consent to participate\"}","trial_type":"survey-multi-choice","trial_index":0,"time_elapsed":6369,"internal_node_id":"0.0-0.0","responseType":"finish","participantID":"5n1qzwpdyesavofzd7ocjtdp31ppxers","anagrams_seen":"PITN","anagrams_answers":"PINT"},{"trial_type":"call-function","trial_index":1,"time_elapsed":6372,"internal_node_id":"0.0-1.0","responseType":"finish","participantID":"5n1qzwpdyesavofzd7ocjtdp31ppxers","anagrams_seen":"PITN","anagrams_answers":"PINT"},{"view_history":"[{\"page_index\":0,\"viewing_time\":7667},{\"page_index\":1,\"viewing_time\":3613}]","rt":11281,"trial_type":"instructions","trial_index":2,"time_elapsed":17653,"internal_node_id":"0.0-2.0","responseType":"finish","participantID":"5n1qzwpdyesavofzd7ocjtdp31ppxers","anagrams_seen":"PITN","anagrams_answers":"PINT"},{"rt":3443,"stimulus":"\u003cblockquote\u003e\n  \u003cp\u003eNow the anagram will be shown to you. \u003cbr\u003e\u003cbr\u003e Press 'v' to view the anagram.\u003c/p\u003e\n\u003c/blockquote\u003e","key_press":86,"trial_type":"html-keyboard-response","trial_index":3,"time_elapsed":21098,"internal_node_id":"0.0-3.0","responseType":"finish","participantID":"5n1qzwpdyesavofzd7ocjtdp31ppxers","anagrams_seen":"PITN","anagrams_answers":"PINT"},{"rt":null,"stimulus":"\u003cb\u003e\u003ccenter\u003e\u003ch2\u003e\u003cp\u003ePITN\u003c/p\u003e\u003c/h2\u003e\u003c/center\u003e\u003c/b\u003e","key_press":null,"trial_type":"html-keyboard-response","trial_index":4,"time_elapsed":21602,"internal_node_id":"0.0-4.0","responseType":"finish","participantID":"5n1qzwpdyesavofzd7ocjtdp31ppxers","anagrams_seen":"PITN","anagrams_answers":"PINT"},{"rt":6489.520000293851,"response":"0.4","stimulus":"\u003cp\u003eHow long do you think it will take you to solve this anagram?\u003c/p\u003e","trial_type":"html-slider-response","trial_index":5,"time_elapsed":28093,"internal_node_id":"0.0-5.0","responseType":"finish","participantID":"5n1qzwpdyesavofzd7ocjtdp31ppxers","anagrams_seen":"PITN","anagrams_answers":"PINT"},{"rt":4738,"responses":"{\"Q0\":\"pint\"}","trial_type":"survey-text","trial_index":6,"time_elapsed":32834,"internal_node_id":"0.0-6.0-0.0","responseType":"finish","participantID":"5n1qzwpdyesavofzd7ocjtdp31ppxers","anagrams_seen":"PITN","anagrams_answers":"PINT"},{"rt":10064,"responses":"{\"Q0\":2}","trial_type":"survey-likert","trial_index":7,"time_elapsed":42900,"internal_node_id":"0.0-7.0-0.0","responseType":"finish","participantID":"5n1qzwpdyesavofzd7ocjtdp31ppxers","anagrams_seen":"PITN","anagrams_answers":"PINT"}],"__v":0}
{"_id":{"$oid":"5d4cb5abaae0e500046eab4e"},"data":{"responseType":"start","participantID":"zjqwkmh2bwjlfcty3q14c59hzna6wv2n","anagrams_seen":"SONW","anagrams_answers":"SNOW"},"__v":0}
{"_id":{"$oid":"5d4cb5caaae0e500046eab4f"},"data":{"responseType":"start","participantID":"jxojjdq4zx8lvu937cljuyumkvkwj603","anagrams_seen":"YJAKWLA","anagrams_answers":"JAYWALK"},"__v":0}
{"_id":{"$oid":"5d4cb5dcaae0e500046eab50"},"data":[{"rt":4225,"responses":"{\"Q0\":\" I consent to participate\"}","trial_type":"survey-multi-choice","trial_index":0,"time_elapsed":4229,"internal_node_id":"0.0-0.0","responseType":"finish","participantID":"zjqwkmh2bwjlfcty3q14c59hzna6wv2n","anagrams_seen":"SONW","anagrams_answers":"SNOW"},{"trial_type":"call-function","trial_index":1,"time_elapsed":4237,"internal_node_id":"0.0-1.0","responseType":"finish","participantID":"zjqwkmh2bwjlfcty3q14c59hzna6wv2n","anagrams_seen":"SONW","anagrams_answers":"SNOW"},{"view_history":"[{\"page_index\":0,\"viewing_time\":12135},{\"page_index\":1,\"viewing_time\":8223}]","rt":20359,"trial_type":"instructions","trial_index":2,"time_elapsed":24596,"internal_node_id":"0.0-2.0","responseType":"finish","participantID":"zjqwkmh2bwjlfcty3q14c59hzna6wv2n","anagrams_seen":"SONW","anagrams_answers":"SNOW"},{"rt":3657,"stimulus":"\u003cblockquote\u003e\n  \u003cp\u003eNow the anagram will be shown to you. \u003cbr\u003e\u003cbr\u003e Press 'v' to view the anagram.\u003c/p\u003e\n\u003c/blockquote\u003e","key_press":86,"trial_type":"html-keyboard-response","trial_index":3,"time_elapsed":28254,"internal_node_id":"0.0-3.0","responseType":"finish","participantID":"zjqwkmh2bwjlfcty3q14c59hzna6wv2n","anagrams_seen":"SONW","anagrams_answers":"SNOW"},{"rt":null,"stimulus":"\u003cb\u003e\u003ccenter\u003e\u003ch2\u003e\u003cp\u003eSONW\u003c/p\u003e\u003c/h2\u003e\u003c/center\u003e\u003c/b\u003e","key_press":null,"trial_type":"html-keyboard-response","trial_index":4,"time_elapsed":28762,"internal_node_id":"0.0-4.0","responseType":"finish","participantID":"zjqwkmh2bwjlfcty3q14c59hzna6wv2n","anagrams_seen":"SONW","anagrams_answers":"SNOW"},{"rt":6687.039999989793,"response":"0.4","stimulus":"\u003cp\u003eHow long do you think it will take you to solve this anagram?\u003c/p\u003e","trial_type":"html-slider-response","trial_index":5,"time_elapsed":35455,"internal_node_id":"0.0-5.0","responseType":"finish","participantID":"zjqwkmh2bwjlfcty3q14c59hzna6wv2n","anagrams_seen":"SONW","anagrams_answers":"SNOW"},{"rt":5861,"responses":"{\"Q0\":\"snow\"}","trial_type":"survey-text","trial_index":6,"time_elapsed":41317,"internal_node_id":"0.0-6.0-0.0","responseType":"finish","participantID":"zjqwkmh2bwjlfcty3q14c59hzna6wv2n","anagrams_seen":"SONW","anagrams_answers":"SNOW"},{"rt":12236,"responses":"{\"Q0\":4}","trial_type":"survey-likert","trial_index":7,"time_elapsed":53556,"internal_node_id":"0.0-7.0-0.0","responseType":"finish","participantID":"zjqwkmh2bwjlfcty3q14c59hzna6wv2n","anagrams_seen":"SONW","anagrams_answers":"SNOW"}],"__v":0}
{"_id":{"$oid":"5d4cb645aae0e500046eab51"},"data":[{"rt":8914,"responses":"{\"Q0\":\" I consent to participate\"}","trial_type":"survey-multi-choice","trial_index":0,"time_elapsed":8920,"internal_node_id":"0.0-0.0","responseType":"finish","participantID":"jxojjdq4zx8lvu937cljuyumkvkwj603","anagrams_seen":"YJAKWLA","anagrams_answers":"JAYWALK"},{"trial_type":"call-function","trial_index":1,"time_elapsed":8924,"internal_node_id":"0.0-1.0","responseType":"finish","participantID":"jxojjdq4zx8lvu937cljuyumkvkwj603","anagrams_seen":"YJAKWLA","anagrams_answers":"JAYWALK"},{"view_history":"[{\"page_index\":0,\"viewing_time\":18119},{\"page_index\":1,\"viewing_time\":17353}]","rt":35473,"trial_type":"instructions","trial_index":2,"time_elapsed":44397,"internal_node_id":"0.0-2.0","responseType":"finish","participantID":"jxojjdq4zx8lvu937cljuyumkvkwj603","anagrams_seen":"YJAKWLA","anagrams_answers":"JAYWALK"},{"rt":4171,"stimulus":"\u003cblockquote\u003e\n  \u003cp\u003eNow the anagram will be shown to you. \u003cbr\u003e\u003cbr\u003e Press 'v' to view the anagram.\u003c/p\u003e\n\u003c/blockquote\u003e","key_press":86,"trial_type":"html-keyboard-response","trial_index":3,"time_elapsed":48569,"internal_node_id":"0.0-3.0","responseType":"finish","participantID":"jxojjdq4zx8lvu937cljuyumkvkwj603","anagrams_seen":"YJAKWLA","anagrams_answers":"JAYWALK"},{"rt":null,"stimulus":"\u003cb\u003e\u003ccenter\u003e\u003ch2\u003e\u003cp\u003eYJAKWLA\u003c/p\u003e\u003c/h2\u003e\u003c/center\u003e\u003c/b\u003e","key_press":null,"trial_type":"html-keyboard-response","trial_index":4,"time_elapsed":49077,"internal_node_id":"0.0-4.0","responseType":"finish","participantID":"jxojjdq4zx8lvu937cljuyumkvkwj603","anagrams_seen":"YJAKWLA","anagrams_answers":"JAYWALK"},{"rt":4669.115000055172,"response":"6","stimulus":"\u003cp\u003eHow long do you think it will take you to solve this anagram?\u003c/p\u003e","trial_type":"html-slider-response","trial_index":5,"time_elapsed":53748,"internal_node_id":"0.0-5.0","responseType":"finish","participantID":"jxojjdq4zx8lvu937cljuyumkvkwj603","anagrams_seen":"YJAKWLA","anagrams_answers":"JAYWALK"},{"rt":65473,"responses":"{\"Q0\":\"jaywalk\"}","trial_type":"survey-text","trial_index":6,"time_elapsed":119224,"internal_node_id":"0.0-6.0-0.0","responseType":"finish","participantID":"jxojjdq4zx8lvu937cljuyumkvkwj603","anagrams_seen":"YJAKWLA","anagrams_answers":"JAYWALK"},{"rt":11913,"responses":"{\"Q0\":5}","trial_type":"survey-likert","trial_index":7,"time_elapsed":131140,"internal_node_id":"0.0-7.0-0.0","responseType":"finish","participantID":"jxojjdq4zx8lvu937cljuyumkvkwj603","anagrams_seen":"YJAKWLA","anagrams_answers":"JAYWALK"}],"__v":0}
{"_id":{"$oid":"5d4cb742aae0e500046eab52"},"data":{"responseType":"start","participantID":"ossa9wybnt9t6fkdegw4hn1fjqezpa57","anagrams_seen":"KHAOMCM","anagrams_answers":"HAMMOCK"},"__v":0}
{"_id":{"$oid":"5d4cb7a9aae0e500046eab53"},"data":[{"rt":12110,"responses":"{\"Q0\":\" I consent to participate\"}","trial_type":"survey-multi-choice","trial_index":0,"time_elapsed":12122,"internal_node_id":"0.0-0.0","responseType":"finish","participantID":"ossa9wybnt9t6fkdegw4hn1fjqezpa57","anagrams_seen":"KHAOMCM","anagrams_answers":"HAMMOCK"},{"trial_type":"call-function","trial_index":1,"time_elapsed":12134,"internal_node_id":"0.0-1.0","responseType":"finish","participantID":"ossa9wybnt9t6fkdegw4hn1fjqezpa57","anagrams_seen":"KHAOMCM","anagrams_answers":"HAMMOCK"},{"view_history":"[{\"page_index\":0,\"viewing_time\":11395},{\"page_index\":1,\"viewing_time\":8717}]","rt":20114,"trial_type":"instructions","trial_index":2,"time_elapsed":32249,"internal_node_id":"0.0-2.0","responseType":"finish","participantID":"ossa9wybnt9t6fkdegw4hn1fjqezpa57","anagrams_seen":"KHAOMCM","anagrams_answers":"HAMMOCK"},{"rt":6164,"stimulus":"\u003cblockquote\u003e\n  \u003cp\u003eNow the anagram will be shown to you. \u003cbr\u003e\u003cbr\u003e Press 'v' to view the anagram.\u003c/p\u003e\n\u003c/blockquote\u003e","key_press":86,"trial_type":"html-keyboard-response","trial_index":3,"time_elapsed":38416,"internal_node_id":"0.0-3.0","responseType":"finish","participantID":"ossa9wybnt9t6fkdegw4hn1fjqezpa57","anagrams_seen":"KHAOMCM","anagrams_answers":"HAMMOCK"},{"rt":null,"stimulus":"\u003cb\u003e\u003ccenter\u003e\u003ch2\u003e\u003cp\u003eKHAOMCM\u003c/p\u003e\u003c/h2\u003e\u003c/center\u003e\u003c/b\u003e","key_press":null,"trial_type":"html-keyboard-response","trial_index":4,"time_elapsed":38929,"internal_node_id":"0.0-4.0","responseType":"finish","participantID":"ossa9wybnt9t6fkdegw4hn1fjqezpa57","anagrams_seen":"KHAOMCM","anagrams_answers":"HAMMOCK"},{"rt":11863.36499999743,"response":"4.9","stimulus":"\u003cp\u003eHow long do you think it will take you to solve this anagram?\u003c/p\u003e","trial_type":"html-slider-response","trial_index":5,"time_elapsed":50796,"internal_node_id":"0.0-5.0","responseType":"finish","participantID":"ossa9wybnt9t6fkdegw4hn1fjqezpa57","anagrams_seen":"KHAOMCM","anagrams_answers":"HAMMOCK"},{"rt":44127,"responses":"{\"Q0\":\"hammock\"}","trial_type":"survey-text","trial_index":6,"time_elapsed":94927,"internal_node_id":"0.0-6.0-0.0","responseType":"finish","participantID":"ossa9wybnt9t6fkdegw4hn1fjqezpa57","anagrams_seen":"KHAOMCM","anagrams_answers":"HAMMOCK"},{"rt":19318,"responses":"{\"Q0\":5}","trial_type":"survey-likert","trial_index":7,"time_elapsed":114253,"internal_node_id":"0.0-7.0-0.0","responseType":"finish","participantID":"ossa9wybnt9t6fkdegw4hn1fjqezpa57","anagrams_seen":"KHAOMCM","anagrams_answers":"HAMMOCK"}],"__v":0}
{"_id":{"$oid":"5d4cb9d6aae0e500046eab54"},"data":{"responseType":"start","participantID":"e8nnj3mxga2asfnt5bfq15qx65u7f1hx","anagrams_seen":"PONHE","anagrams_answers":"PHONE"},"__v":0}
{"_id":{"$oid":"5d4cb9fdaae0e500046eab55"},"data":[{"rt":16508,"responses":"{\"Q0\":\" I consent to participate\"}","trial_type":"survey-multi-choice","trial_index":0,"time_elapsed":16520,"internal_node_id":"0.0-0.0","responseType":"finish","participantID":"e8nnj3mxga2asfnt5bfq15qx65u7f1hx","anagrams_seen":"PONHE","anagrams_answers":"PHONE"},{"trial_type":"call-function","trial_index":1,"time_elapsed":16527,"internal_node_id":"0.0-1.0","responseType":"finish","participantID":"e8nnj3mxga2asfnt5bfq15qx65u7f1hx","anagrams_seen":"PONHE","anagrams_answers":"PHONE"},{"view_history":"[{\"page_index\":0,\"viewing_time\":8435},{\"page_index\":1,\"viewing_time\":5272}]","rt":13708,"trial_type":"instructions","trial_index":2,"time_elapsed":30236,"internal_node_id":"0.0-2.0","responseType":"finish","participantID":"e8nnj3mxga2asfnt5bfq15qx65u7f1hx","anagrams_seen":"PONHE","anagrams_answers":"PHONE"},{"rt":2940,"stimulus":"\u003cblockquote\u003e\n  \u003cp\u003eNow the anagram will be shown to you. \u003cbr\u003e\u003cbr\u003e Press 'v' to view the anagram.\u003c/p\u003e\n\u003c/blockquote\u003e","key_press":86,"trial_type":"html-keyboard-response","trial_index":3,"time_elapsed":33180,"internal_node_id":"0.0-3.0","responseType":"finish","participantID":"e8nnj3mxga2asfnt5bfq15qx65u7f1hx","anagrams_seen":"PONHE","anagrams_answers":"PHONE"},{"rt":null,"stimulus":"\u003cb\u003e\u003ccenter\u003e\u003ch2\u003e\u003cp\u003ePONHE\u003c/p\u003e\u003c/h2\u003e\u003c/center\u003e\u003c/b\u003e","key_press":null,"trial_type":"html-keyboard-response","trial_index":4,"time_elapsed":33698,"internal_node_id":"0.0-4.0","responseType":"finish","participantID":"e8nnj3mxga2asfnt5bfq15qx65u7f1hx","anagrams_seen":"PONHE","anagrams_answers":"PHONE"},{"rt":7740,"response":"3.1","stimulus":"\u003cp\u003eHow long do you think it will take you to solve this anagram?\u003c/p\u003e","trial_type":"html-slider-response","trial_index":5,"time_elapsed":41443,"internal_node_id":"0.0-5.0","responseType":"finish","participantID":"e8nnj3mxga2asfnt5bfq15qx65u7f1hx","anagrams_seen":"PONHE","anagrams_answers":"PHONE"},{"rt":5948,"responses":"{\"Q0\":\"phone\"}","trial_type":"survey-text","trial_index":6,"time_elapsed":47395,"internal_node_id":"0.0-6.0-0.0","responseType":"finish","participantID":"e8nnj3mxga2asfnt5bfq15qx65u7f1hx","anagrams_seen":"PONHE","anagrams_answers":"PHONE"},{"rt":7816,"responses":"{\"Q0\":3}","trial_type":"survey-likert","trial_index":7,"time_elapsed":55214,"internal_node_id":"0.0-7.0-0.0","responseType":"finish","participantID":"e8nnj3mxga2asfnt5bfq15qx65u7f1hx","anagrams_seen":"PONHE","anagrams_answers":"PHONE"}],"__v":0}
{"_id":{"$oid":"5d4cbd80aae0e500046eab56"},"data":{"responseType":"start","participantID":"stpsjhd51hrpcl7pdvbeaw5hrl59on8j","anagrams_seen":"PITN","anagrams_answers":"PINT"},"__v":0}
{"_id":{"$oid":"5d4cbddcaae0e500046eab57"},"data":[{"rt":7871,"responses":"{\"Q0\":\" I consent to participate\"}","trial_type":"survey-multi-choice","trial_index":0,"time_elapsed":7879,"internal_node_id":"0.0-0.0","responseType":"finish","participantID":"stpsjhd51hrpcl7pdvbeaw5hrl59on8j","anagrams_seen":"PITN","anagrams_answers":"PINT"},{"trial_type":"call-function","trial_index":1,"time_elapsed":7890,"internal_node_id":"0.0-1.0","responseType":"finish","participantID":"stpsjhd51hrpcl7pdvbeaw5hrl59on8j","anagrams_seen":"PITN","anagrams_answers":"PINT"},{"view_history":"[{\"page_index\":0,\"viewing_time\":15342},{\"page_index\":1,\"viewing_time\":39812}]","rt":55154,"trial_type":"instructions","trial_index":2,"time_elapsed":63044,"internal_node_id":"0.0-2.0","responseType":"finish","participantID":"stpsjhd51hrpcl7pdvbeaw5hrl59on8j","anagrams_seen":"PITN","anagrams_answers":"PINT"},{"rt":11859,"stimulus":"\u003cblockquote\u003e\n  \u003cp\u003eNow the anagram will be shown to you. \u003cbr\u003e\u003cbr\u003e Press 'v' to view the anagram.\u003c/p\u003e\n\u003c/blockquote\u003e","key_press":86,"trial_type":"html-keyboard-response","trial_index":3,"time_elapsed":74905,"internal_node_id":"0.0-3.0","responseType":"finish","participantID":"stpsjhd51hrpcl7pdvbeaw5hrl59on8j","anagrams_seen":"PITN","anagrams_answers":"PINT"},{"rt":null,"stimulus":"\u003cb\u003e\u003ccenter\u003e\u003ch2\u003e\u003cp\u003ePITN\u003c/p\u003e\u003c/h2\u003e\u003c/center\u003e\u003c/b\u003e","key_press":null,"trial_type":"html-keyboard-response","trial_index":4,"time_elapsed":75410,"internal_node_id":"0.0-4.0","responseType":"finish","participantID":"stpsjhd51hrpcl7pdvbeaw5hrl59on8j","anagrams_seen":"PITN","anagrams_answers":"PINT"},{"rt":5748.234999831766,"response":"0","stimulus":"\u003cp\u003eHow long do you think it will take you to solve this anagram?\u003c/p\u003e","trial_type":"html-slider-response","trial_index":5,"time_elapsed":81162,"internal_node_id":"0.0-5.0","responseType":"finish","participantID":"stpsjhd51hrpcl7pdvbeaw5hrl59on8j","anagrams_seen":"PITN","anagrams_answers":"PINT"},{"rt":4080,"responses":"{\"Q0\":\"pint\"}","trial_type":"survey-text","trial_index":6,"time_elapsed":85244,"internal_node_id":"0.0-6.0-0.0","responseType":"finish","participantID":"stpsjhd51hrpcl7pdvbeaw5hrl59on8j","anagrams_seen":"PITN","anagrams_answers":"PINT"},{"rt":13682,"responses":"{\"Q0\":5}","trial_type":"survey-likert","trial_index":7,"time_elapsed":98928,"internal_node_id":"0.0-7.0-0.0","responseType":"finish","participantID":"stpsjhd51hrpcl7pdvbeaw5hrl59on8j","anagrams_seen":"PITN","anagrams_answers":"PINT"}],"__v":0}
{"_id":{"$oid":"5d4cbe64aae0e500046eab58"},"data":{"responseType":"start","participantID":"pdnf95qe75vdyoo6juqcsvnav59yyj8o","anagrams_seen":"YJAKWLA","anagrams_answers":"JAYWALK"},"__v":0}
{"_id":{"$oid":"5d4cbeabaae0e500046eab59"},"data":[{"rt":5071,"responses":"{\"Q0\":\" I consent to participate\"}","trial_type":"survey-multi-choice","trial_index":0,"time_elapsed":5074,"internal_node_id":"0.0-0.0","responseType":"finish","participantID":"pdnf95qe75vdyoo6juqcsvnav59yyj8o","anagrams_seen":"YJAKWLA","anagrams_answers":"JAYWALK"},{"trial_type":"call-function","trial_index":1,"time_elapsed":5081,"internal_node_id":"0.0-1.0","responseType":"finish","participantID":"pdnf95qe75vdyoo6juqcsvnav59yyj8o","anagrams_seen":"YJAKWLA","anagrams_answers":"JAYWALK"},{"view_history":"[{\"page_index\":0,\"viewing_time\":12208},{\"page_index\":1,\"viewing_time\":17552}]","rt":29761,"trial_type":"instructions","trial_index":2,"time_elapsed":34842,"internal_node_id":"0.0-2.0","responseType":"finish","participantID":"pdnf95qe75vdyoo6juqcsvnav59yyj8o","anagrams_seen":"YJAKWLA","anagrams_answers":"JAYWALK"},{"rt":3111,"stimulus":"\u003cblockquote\u003e\n  \u003cp\u003eNow the anagram will be shown to you. \u003cbr\u003e\u003cbr\u003e Press 'v' to view the anagram.\u003c/p\u003e\n\u003c/blockquote\u003e","key_press":86,"trial_type":"html-keyboard-response","trial_index":3,"time_elapsed":37954,"internal_node_id":"0.0-3.0","responseType":"finish","participantID":"pdnf95qe75vdyoo6juqcsvnav59yyj8o","anagrams_seen":"YJAKWLA","anagrams_answers":"JAYWALK"},{"rt":null,"stimulus":"\u003cb\u003e\u003ccenter\u003e\u003ch2\u003e\u003cp\u003eYJAKWLA\u003c/p\u003e\u003c/h2\u003e\u003c/center\u003e\u003c/b\u003e","key_press":null,"trial_type":"html-keyboard-response","trial_index":4,"time_elapsed":38458,"internal_node_id":"0.0-4.0","responseType":"finish","participantID":"pdnf95qe75vdyoo6juqcsvnav59yyj8o","anagrams_seen":"YJAKWLA","anagrams_answers":"JAYWALK"},{"rt":9005.549999885261,"response":"2.2","stimulus":"\u003cp\u003eHow long do you think it will take you to solve this anagram?\u003c/p\u003e","trial_type":"html-slider-response","trial_index":5,"time_elapsed":47465,"internal_node_id":"0.0-5.0","responseType":"finish","participantID":"pdnf95qe75vdyoo6juqcsvnav59yyj8o","anagrams_seen":"YJAKWLA","anagrams_answers":"JAYWALK"},{"rt":11935,"responses":"{\"Q0\":\"jaywalk\"}","trial_type":"survey-text","trial_index":6,"time_elapsed":59401,"internal_node_id":"0.0-6.0-0.0","responseType":"finish","participantID":"pdnf95qe75vdyoo6juqcsvnav59yyj8o","anagrams_seen":"YJAKWLA","anagrams_answers":"JAYWALK"},{"rt":16126,"responses":"{\"Q0\":4}","trial_type":"survey-likert","trial_index":7,"time_elapsed":75530,"internal_node_id":"0.0-7.0-0.0","responseType":"finish","participantID":"pdnf95qe75vdyoo6juqcsvnav59yyj8o","anagrams_seen":"YJAKWLA","anagrams_answers":"JAYWALK"}],"__v":0}
{"_id":{"$oid":"5d4cbf9aaae0e500046eab5a"},"data":{"responseType":"start","participantID":"xpv5s1t5l68mbkmtfdj2ykvdjxy8ecqm","anagrams_seen":"IORCNAG","anagrams_answers":"ORGANIC"},"__v":0}
{"_id":{"$oid":"5d4cbfb2aae0e500046eab5b"},"data":[{"rt":4207,"responses":"{\"Q0\":\" I consent to participate\"}","trial_type":"survey-multi-choice","trial_index":0,"time_elapsed":4211,"internal_node_id":"0.0-0.0","responseType":"finish","participantID":"xpv5s1t5l68mbkmtfdj2ykvdjxy8ecqm","anagrams_seen":"IORCNAG","anagrams_answers":"ORGANIC"},{"trial_type":"call-function","trial_index":1,"time_elapsed":4215,"internal_node_id":"0.0-1.0","responseType":"finish","participantID":"xpv5s1t5l68mbkmtfdj2ykvdjxy8ecqm","anagrams_seen":"IORCNAG","anagrams_answers":"ORGANIC"},{"view_history":"[{\"page_index\":0,\"viewing_time\":1362},{\"page_index\":1,\"viewing_time\":584}]","rt":1946,"trial_type":"instructions","trial_index":2,"time_elapsed":6161,"internal_node_id":"0.0-2.0","responseType":"finish","participantID":"xpv5s1t5l68mbkmtfdj2ykvdjxy8ecqm","anagrams_seen":"IORCNAG","anagrams_answers":"ORGANIC"},{"rt":1949,"stimulus":"\u003cblockquote\u003e\n  \u003cp\u003eNow the anagram will be shown to you. \u003cbr\u003e\u003cbr\u003e Press 'v' to view the anagram.\u003c/p\u003e\n\u003c/blockquote\u003e","key_press":86,"trial_type":"html-keyboard-response","trial_index":3,"time_elapsed":8111,"internal_node_id":"0.0-3.0","responseType":"finish","participantID":"xpv5s1t5l68mbkmtfdj2ykvdjxy8ecqm","anagrams_seen":"IORCNAG","anagrams_answers":"ORGANIC"},{"rt":null,"stimulus":"\u003cb\u003e\u003ccenter\u003e\u003ch2\u003e\u003cp\u003eIORCNAG\u003c/p\u003e\u003c/h2\u003e\u003c/center\u003e\u003c/b\u003e","key_press":null,"trial_type":"html-keyboard-response","trial_index":4,"time_elapsed":8619,"internal_node_id":"0.0-4.0","responseType":"finish","participantID":"xpv5s1t5l68mbkmtfdj2ykvdjxy8ecqm","anagrams_seen":"IORCNAG","anagrams_answers":"ORGANIC"},{"rt":5972.424999927171,"response":"0.8","stimulus":"\u003cp\u003eHow long do you think it will take you to solve this anagram?\u003c/p\u003e","trial_type":"html-slider-response","trial_index":5,"time_elapsed":14593,"internal_node_id":"0.0-5.0","responseType":"finish","participantID":"xpv5s1t5l68mbkmtfdj2ykvdjxy8ecqm","anagrams_seen":"IORCNAG","anagrams_answers":"ORGANIC"},{"rt":12038,"responses":"{\"Q0\":\"NEXT\"}","trial_type":"survey-text","trial_index":6,"time_elapsed":26633,"internal_node_id":"0.0-6.0-0.0","responseType":"finish","participantID":"xpv5s1t5l68mbkmtfdj2ykvdjxy8ecqm","anagrams_seen":"IORCNAG","anagrams_answers":"ORGANIC"},{"rt":2046,"responses":"{\"Q0\":3}","trial_type":"survey-likert","trial_index":7,"time_elapsed":28682,"internal_node_id":"0.0-7.0-0.0","responseType":"finish","participantID":"xpv5s1t5l68mbkmtfdj2ykvdjxy8ecqm","anagrams_seen":"IORCNAG","anagrams_answers":"ORGANIC"}],"__v":0}
{"_id":{"$oid":"5d4cc59faae0e500046eab5c"},"data":{"responseType":"start","participantID":"uhyfle7j2oqjsy5e3gno01vuqd0qj54d","anagrams_seen":"DALRBEU","anagrams_answers":"DURABLE"},"__v":0}
{"_id":{"$oid":"5d4cc613aae0e500046eab5d"},"data":[{"rt":7318,"responses":"{\"Q0\":\" I consent to participate\"}","trial_type":"survey-multi-choice","trial_index":0,"time_elapsed":7329,"internal_node_id":"0.0-0.0","responseType":"finish","participantID":"uhyfle7j2oqjsy5e3gno01vuqd0qj54d","anagrams_seen":"DALRBEU","anagrams_answers":"DURABLE"},{"trial_type":"call-function","trial_index":1,"time_elapsed":7335,"internal_node_id":"0.0-1.0","responseType":"finish","participantID":"uhyfle7j2oqjsy5e3gno01vuqd0qj54d","anagrams_seen":"DALRBEU","anagrams_answers":"DURABLE"},{"view_history":"[{\"page_index\":0,\"viewing_time\":21771},{\"page_index\":1,\"viewing_time\":19167}]","rt":40940,"trial_type":"instructions","trial_index":2,"time_elapsed":48275,"internal_node_id":"0.0-2.0","responseType":"finish","participantID":"uhyfle7j2oqjsy5e3gno01vuqd0qj54d","anagrams_seen":"DALRBEU","anagrams_answers":"DURABLE"},{"rt":6381,"stimulus":"\u003cblockquote\u003e\n  \u003cp\u003eNow the anagram will be shown to you. \u003cbr\u003e\u003cbr\u003e Press 'v' to view the anagram.\u003c/p\u003e\n\u003c/blockquote\u003e","key_press":86,"trial_type":"html-keyboard-response","trial_index":3,"time_elapsed":54659,"internal_node_id":"0.0-3.0","responseType":"finish","participantID":"uhyfle7j2oqjsy5e3gno01vuqd0qj54d","anagrams_seen":"DALRBEU","anagrams_answers":"DURABLE"},{"rt":null,"stimulus":"\u003cb\u003e\u003ccenter\u003e\u003ch2\u003e\u003cp\u003eDALRBEU\u003c/p\u003e\u003c/h2\u003e\u003c/center\u003e\u003c/b\u003e","key_press":null,"trial_type":"html-keyboard-response","trial_index":4,"time_elapsed":55172,"internal_node_id":"0.0-4.0","responseType":"finish","participantID":"uhyfle7j2oqjsy5e3gno01vuqd0qj54d","anagrams_seen":"DALRBEU","anagrams_answers":"DURABLE"},{"rt":8598.060000000034,"response":"3.4","stimulus":"\u003cp\u003eHow long do you think it will take you to solve this anagram?\u003c/p\u003e","trial_type":"html-slider-response","trial_index":5,"time_elapsed":63772,"internal_node_id":"0.0-5.0","responseType":"finish","participantID":"uhyfle7j2oqjsy5e3gno01vuqd0qj54d","anagrams_seen":"DALRBEU","anagrams_answers":"DURABLE"},{"rt":43428,"responses":"{\"Q0\":\"next\"}","trial_type":"survey-text","trial_index":6,"time_elapsed":107204,"internal_node_id":"0.0-6.0-0.0","responseType":"finish","participantID":"uhyfle7j2oqjsy5e3gno01vuqd0qj54d","anagrams_seen":"DALRBEU","anagrams_answers":"DURABLE"},{"rt":15797,"responses":"{\"Q0\":0}","trial_type":"survey-likert","trial_index":7,"time_elapsed":123008,"internal_node_id":"0.0-7.0-0.0","responseType":"finish","participantID":"uhyfle7j2oqjsy5e3gno01vuqd0qj54d","anagrams_seen":"DALRBEU","anagrams_answers":"DURABLE"}],"__v":0}
{"_id":{"$oid":"5d4cc87daae0e500046eab5e"},"data":{"responseType":"start","participantID":"ytr5mtkfyfk6natmcoqt5ddd8yobwzjz","anagrams_seen":"CTA","anagrams_answers":"CAT"},"__v":0}
{"_id":{"$oid":"5d4cc8a5aae0e500046eab5f"},"data":[{"rt":7688,"responses":"{\"Q0\":\" I consent to participate\"}","trial_type":"survey-multi-choice","trial_index":0,"time_elapsed":7693,"internal_node_id":"0.0-0.0","responseType":"finish","participantID":"ytr5mtkfyfk6natmcoqt5ddd8yobwzjz","anagrams_seen":"CTA","anagrams_answers":"CAT"},{"trial_type":"call-function","trial_index":1,"time_elapsed":7697,"internal_node_id":"0.0-1.0","responseType":"finish","participantID":"ytr5mtkfyfk6natmcoqt5ddd8yobwzjz","anagrams_seen":"CTA","anagrams_answers":"CAT"},{"view_history":"[{\"page_index\":0,\"viewing_time\":8169},{\"page_index\":1,\"viewing_time\":9352}]","rt":17522,"trial_type":"instructions","trial_index":2,"time_elapsed":25219,"internal_node_id":"0.0-2.0","responseType":"finish","participantID":"ytr5mtkfyfk6natmcoqt5ddd8yobwzjz","anagrams_seen":"CTA","anagrams_answers":"CAT"},{"rt":2376,"stimulus":"\u003cblockquote\u003e\n  \u003cp\u003eNow the anagram will be shown to you. \u003cbr\u003e\u003cbr\u003e Press 'v' to view the anagram.\u003c/p\u003e\n\u003c/blockquote\u003e","key_press":86,"trial_type":"html-keyboard-response","trial_index":3,"time_elapsed":27595,"internal_node_id":"0.0-3.0","responseType":"finish","participantID":"ytr5mtkfyfk6natmcoqt5ddd8yobwzjz","anagrams_seen":"CTA","anagrams_answers":"CAT"},{"rt":null,"stimulus":"\u003cb\u003e\u003ccenter\u003e\u003ch2\u003e\u003cp\u003eCTA\u003c/p\u003e\u003c/h2\u003e\u003c/center\u003e\u003c/b\u003e","key_press":null,"trial_type":"html-keyboard-response","trial_index":4,"time_elapsed":28103,"internal_node_id":"0.0-4.0","responseType":"finish","participantID":"ytr5mtkfyfk6natmcoqt5ddd8yobwzjz","anagrams_seen":"CTA","anagrams_answers":"CAT"},{"rt":3897.024999372661,"response":"0","stimulus":"\u003cp\u003eHow long do you think it will take you to solve this anagram?\u003c/p\u003e","trial_type":"html-slider-response","trial_index":5,"time_elapsed":32003,"internal_node_id":"0.0-5.0","responseType":"finish","participantID":"ytr5mtkfyfk6natmcoqt5ddd8yobwzjz","anagrams_seen":"CTA","anagrams_answers":"CAT"},{"rt":3742,"responses":"{\"Q0\":\"cat\"}","trial_type":"survey-text","trial_index":6,"time_elapsed":35747,"internal_node_id":"0.0-6.0-0.0","responseType":"finish","participantID":"ytr5mtkfyfk6natmcoqt5ddd8yobwzjz","anagrams_seen":"CTA","anagrams_answers":"CAT"},{"rt":11871,"responses":"{\"Q0\":0}","trial_type":"survey-likert","trial_index":7,"time_elapsed":47619,"internal_node_id":"0.0-7.0-0.0","responseType":"finish","participantID":"ytr5mtkfyfk6natmcoqt5ddd8yobwzjz","anagrams_seen":"CTA","anagrams_answers":"CAT"}],"__v":0}
{"_id":{"$oid":"5d4ccd9eaae0e500046eab60"},"data":{"responseType":"start","participantID":"d6mq4xo2k6hskr1qh5c2gdc3ls74j0n1","anagrams_seen":"CTA","anagrams_answers":"CAT"},"__v":0}
{"_id":{"$oid":"5d4cce79aae0e500046eab61"},"data":[{"rt":99509,"responses":"{\"Q0\":\" I consent to participate\"}","trial_type":"survey-multi-choice","trial_index":0,"time_elapsed":99512,"internal_node_id":"0.0-0.0","responseType":"finish","participantID":"d6mq4xo2k6hskr1qh5c2gdc3ls74j0n1","anagrams_seen":"CTA","anagrams_answers":"CAT"},{"trial_type":"call-function","trial_index":1,"time_elapsed":99517,"internal_node_id":"0.0-1.0","responseType":"finish","participantID":"d6mq4xo2k6hskr1qh5c2gdc3ls74j0n1","anagrams_seen":"CTA","anagrams_answers":"CAT"},{"view_history":"[{\"page_index\":0,\"viewing_time\":9129},{\"page_index\":1,\"viewing_time\":108434}]","rt":117564,"trial_type":"instructions","trial_index":2,"time_elapsed":217081,"internal_node_id":"0.0-2.0","responseType":"finish","participantID":"d6mq4xo2k6hskr1qh5c2gdc3ls74j0n1","anagrams_seen":"CTA","anagrams_answers":"CAT"},{"rt":2138,"stimulus":"\u003cblockquote\u003e\n  \u003cp\u003eNow the anagram will be shown to you. \u003cbr\u003e\u003cbr\u003e Press 'v' to view the anagram.\u003c/p\u003e\n\u003c/blockquote\u003e","key_press":86,"trial_type":"html-keyboard-response","trial_index":3,"time_elapsed":219219,"internal_node_id":"0.0-3.0","responseType":"finish","participantID":"d6mq4xo2k6hskr1qh5c2gdc3ls74j0n1","anagrams_seen":"CTA","anagrams_answers":"CAT"},{"rt":null,"stimulus":"\u003cb\u003e\u003ccenter\u003e\u003ch2\u003e\u003cp\u003eCTA\u003c/p\u003e\u003c/h2\u003e\u003c/center\u003e\u003c/b\u003e","key_press":null,"trial_type":"html-keyboard-response","trial_index":4,"time_elapsed":219723,"internal_node_id":"0.0-4.0","responseType":"finish","participantID":"d6mq4xo2k6hskr1qh5c2gdc3ls74j0n1","anagrams_seen":"CTA","anagrams_answers":"CAT"},{"rt":3309.4949999999953,"response":"0","stimulus":"\u003cp\u003eHow long do you think it will take you to solve this anagram?\u003c/p\u003e","trial_type":"html-slider-response","trial_index":5,"time_elapsed":223034,"internal_node_id":"0.0-5.0","responseType":"finish","participantID":"d6mq4xo2k6hskr1qh5c2gdc3ls74j0n1","anagrams_seen":"CTA","anagrams_answers":"CAT"},{"rt":1528,"responses":"{\"Q0\":\"cat\"}","trial_type":"survey-text","trial_index":6,"time_elapsed":224562,"internal_node_id":"0.0-6.0-0.0","responseType":"finish","participantID":"d6mq4xo2k6hskr1qh5c2gdc3ls74j0n1","anagrams_seen":"CTA","anagrams_answers":"CAT"},{"rt":93825,"responses":"{\"Q0\":3}","trial_type":"survey-likert","trial_index":7,"time_elapsed":318389,"internal_node_id":"0.0-7.0-0.0","responseType":"finish","participantID":"d6mq4xo2k6hskr1qh5c2gdc3ls74j0n1","anagrams_seen":"CTA","anagrams_answers":"CAT"}],"__v":0}
{"_id":{"$oid":"5d4cd0f7aae0e500046eab62"},"data":{"responseType":"start","participantID":"af18nyp5k8gsn9a7r5q0pmkwsjcnco9o","anagrams_seen":"YJAKWLA","anagrams_answers":"JAYWALK"},"__v":0}
{"_id":{"$oid":"5d4cd155aae0e500046eab63"},"data":[{"rt":14907,"responses":"{\"Q0\":\" I consent to participate\"}","trial_type":"survey-multi-choice","trial_index":0,"time_elapsed":14911,"internal_node_id":"0.0-0.0","responseType":"finish","participantID":"af18nyp5k8gsn9a7r5q0pmkwsjcnco9o","anagrams_seen":"YJAKWLA","anagrams_answers":"JAYWALK"},{"trial_type":"call-function","trial_index":1,"time_elapsed":14914,"internal_node_id":"0.0-1.0","responseType":"finish","participantID":"af18nyp5k8gsn9a7r5q0pmkwsjcnco9o","anagrams_seen":"YJAKWLA","anagrams_answers":"JAYWALK"},{"view_history":"[{\"page_index\":0,\"viewing_time\":29833},{\"page_index\":1,\"viewing_time\":29264}]","rt":59098,"trial_type":"instructions","trial_index":2,"time_elapsed":74013,"internal_node_id":"0.0-2.0","responseType":"finish","participantID":"af18nyp5k8gsn9a7r5q0pmkwsjcnco9o","anagrams_seen":"YJAKWLA","anagrams_answers":"JAYWALK"},{"rt":2887,"stimulus":"\u003cblockquote\u003e\n  \u003cp\u003eNow the anagram will be shown to you. \u003cbr\u003e\u003cbr\u003e Press 'v' to view the anagram.\u003c/p\u003e\n\u003c/blockquote\u003e","key_press":86,"trial_type":"html-keyboard-response","trial_index":3,"time_elapsed":76900,"internal_node_id":"0.0-3.0","responseType":"finish","participantID":"af18nyp5k8gsn9a7r5q0pmkwsjcnco9o","anagrams_seen":"YJAKWLA","anagrams_answers":"JAYWALK"},{"rt":null,"stimulus":"\u003cb\u003e\u003ccenter\u003e\u003ch2\u003e\u003cp\u003eYJAKWLA\u003c/p\u003e\u003c/h2\u003e\u003c/center\u003e\u003c/b\u003e","key_press":null,"trial_type":"html-keyboard-response","trial_index":4,"time_elapsed":77403,"internal_node_id":"0.0-4.0","responseType":"finish","participantID":"af18nyp5k8gsn9a7r5q0pmkwsjcnco9o","anagrams_seen":"YJAKWLA","anagrams_answers":"JAYWALK"},{"rt":7019.970000001194,"response":"3.3","stimulus":"\u003cp\u003eHow long do you think it will take you to solve this anagram?\u003c/p\u003e","trial_type":"html-slider-response","trial_index":5,"time_elapsed":84425,"internal_node_id":"0.0-5.0","responseType":"finish","participantID":"af18nyp5k8gsn9a7r5q0pmkwsjcnco9o","anagrams_seen":"YJAKWLA","anagrams_answers":"JAYWALK"},{"rt":10232,"responses":"{\"Q0\":\"jaywalk\"}","trial_type":"survey-text","trial_index":6,"time_elapsed":94658,"internal_node_id":"0.0-6.0-0.0","responseType":"finish","participantID":"af18nyp5k8gsn9a7r5q0pmkwsjcnco9o","anagrams_seen":"YJAKWLA","anagrams_answers":"JAYWALK"},{"rt":14645,"responses":"{\"Q0\":5}","trial_type":"survey-likert","trial_index":7,"time_elapsed":109305,"internal_node_id":"0.0-7.0-0.0","responseType":"finish","participantID":"af18nyp5k8gsn9a7r5q0pmkwsjcnco9o","anagrams_seen":"YJAKWLA","anagrams_answers":"JAYWALK"}],"__v":0}
{"_id":{"$oid":"5d4cd3d9aae0e500046eab64"},"data":{"responseType":"start","participantID":"fkg6jrp5zd78gmhe47s9olxrz51fyseg","anagrams_seen":"SONW","anagrams_answers":"SNOW"},"__v":0}
{"_id":{"$oid":"5d4cd40aaae0e500046eab65"},"data":[{"rt":15421,"responses":"{\"Q0\":\" I consent to participate\"}","trial_type":"survey-multi-choice","trial_index":0,"time_elapsed":15424,"internal_node_id":"0.0-0.0","responseType":"finish","participantID":"fkg6jrp5zd78gmhe47s9olxrz51fyseg","anagrams_seen":"SONW","anagrams_answers":"SNOW"},{"trial_type":"call-function","trial_index":1,"time_elapsed":15427,"internal_node_id":"0.0-1.0","responseType":"finish","participantID":"fkg6jrp5zd78gmhe47s9olxrz51fyseg","anagrams_seen":"SONW","anagrams_answers":"SNOW"},{"view_history":"[{\"page_index\":0,\"viewing_time\":8524},{\"page_index\":1,\"viewing_time\":14535}]","rt":23059,"trial_type":"instructions","trial_index":2,"time_elapsed":38486,"internal_node_id":"0.0-2.0","responseType":"finish","participantID":"fkg6jrp5zd78gmhe47s9olxrz51fyseg","anagrams_seen":"SONW","anagrams_answers":"SNOW"},{"rt":3219,"stimulus":"\u003cblockquote\u003e\n  \u003cp\u003eNow the anagram will be shown to you. \u003cbr\u003e\u003cbr\u003e Press 'v' to view the anagram.\u003c/p\u003e\n\u003c/blockquote\u003e","key_press":86,"trial_type":"html-keyboard-response","trial_index":3,"time_elapsed":41707,"internal_node_id":"0.0-3.0","responseType":"finish","participantID":"fkg6jrp5zd78gmhe47s9olxrz51fyseg","anagrams_seen":"SONW","anagrams_answers":"SNOW"},{"rt":null,"stimulus":"\u003cb\u003e\u003ccenter\u003e\u003ch2\u003e\u003cp\u003eSONW\u003c/p\u003e\u003c/h2\u003e\u003c/center\u003e\u003c/b\u003e","key_press":null,"trial_type":"html-keyboard-response","trial_index":4,"time_elapsed":42215,"internal_node_id":"0.0-4.0","responseType":"finish","participantID":"fkg6jrp5zd78gmhe47s9olxrz51fyseg","anagrams_seen":"SONW","anagrams_answers":"SNOW"},{"rt":4289.785000029951,"response":"0","stimulus":"\u003cp\u003eHow long do you think it will take you to solve this anagram?\u003c/p\u003e","trial_type":"html-slider-response","trial_index":5,"time_elapsed":46507,"internal_node_id":"0.0-5.0","responseType":"finish","participantID":"fkg6jrp5zd78gmhe47s9olxrz51fyseg","anagrams_seen":"SONW","anagrams_answers":"SNOW"},{"rt":3532,"responses":"{\"Q0\":\"snow\"}","trial_type":"survey-text","trial_index":6,"time_elapsed":50041,"internal_node_id":"0.0-6.0-0.0","responseType":"finish","participantID":"fkg6jrp5zd78gmhe47s9olxrz51fyseg","anagrams_seen":"SONW","anagrams_answers":"SNOW"},{"rt":14727,"responses":"{\"Q0\":2}","trial_type":"survey-likert","trial_index":7,"time_elapsed":64769,"internal_node_id":"0.0-7.0-0.0","responseType":"finish","participantID":"fkg6jrp5zd78gmhe47s9olxrz51fyseg","anagrams_seen":"SONW","anagrams_answers":"SNOW"}],"__v":0}
{"_id":{"$oid":"5d4cd543aae0e500046eab66"},"data":{"responseType":"start","participantID":"ld4b9e3ulsf1kmth2b6fdan6pabfs5r0","anagrams_seen":"PREOK","anagrams_answers":"POKER"},"__v":0}
{"_id":{"$oid":"5d4cd555aae0e500046eab67"},"data":{"responseType":"start","participantID":"2rh93lznvtsxed79ztz9yp829twnqztj","anagrams_seen":"PONHE","anagrams_answers":"PHONE"},"__v":0}
{"_id":{"$oid":"5d4cd58daae0e500046eab68"},"data":[{"rt":28555,"responses":"{\"Q0\":\" I consent to participate\"}","trial_type":"survey-multi-choice","trial_index":0,"time_elapsed":28563,"internal_node_id":"0.0-0.0","responseType":"finish","participantID":"2rh93lznvtsxed79ztz9yp829twnqztj","anagrams_seen":"PONHE","anagrams_answers":"PHONE"},{"trial_type":"call-function","trial_index":1,"time_elapsed":28570,"internal_node_id":"0.0-1.0","responseType":"finish","participantID":"2rh93lznvtsxed79ztz9yp829twnqztj","anagrams_seen":"PONHE","anagrams_answers":"PHONE"},{"view_history":"[{\"page_index\":0,\"viewing_time\":10076},{\"page_index\":1,\"viewing_time\":10924}]","rt":21001,"trial_type":"instructions","trial_index":2,"time_elapsed":49572,"internal_node_id":"0.0-2.0","responseType":"finish","participantID":"2rh93lznvtsxed79ztz9yp829twnqztj","anagrams_seen":"PONHE","anagrams_answers":"PHONE"},{"rt":2378,"stimulus":"\u003cblockquote\u003e\n  \u003cp\u003eNow the anagram will be shown to you. \u003cbr\u003e\u003cbr\u003e Press 'v' to view the anagram.\u003c/p\u003e\n\u003c/blockquote\u003e","key_press":86,"trial_type":"html-keyboard-response","trial_index":3,"time_elapsed":51953,"internal_node_id":"0.0-3.0","responseType":"finish","participantID":"2rh93lznvtsxed79ztz9yp829twnqztj","anagrams_seen":"PONHE","anagrams_answers":"PHONE"},{"rt":null,"stimulus":"\u003cb\u003e\u003ccenter\u003e\u003ch2\u003e\u003cp\u003ePONHE\u003c/p\u003e\u003c/h2\u003e\u003c/center\u003e\u003c/b\u003e","key_press":null,"trial_type":"html-keyboard-response","trial_index":4,"time_elapsed":52465,"internal_node_id":"0.0-4.0","responseType":"finish","participantID":"2rh93lznvtsxed79ztz9yp829twnqztj","anagrams_seen":"PONHE","anagrams_answers":"PHONE"},{"rt":4692.594999999987,"response":"0.3","stimulus":"\u003cp\u003eHow long do you think it will take you to solve this anagram?\u003c/p\u003e","trial_type":"html-slider-response","trial_index":5,"time_elapsed":57160,"internal_node_id":"0.0-5.0","responseType":"finish","participantID":"2rh93lznvtsxed79ztz9yp829twnqztj","anagrams_seen":"PONHE","anagrams_answers":"PHONE"},{"rt":9584,"responses":"{\"Q0\":\"PHONE\"}","trial_type":"survey-text","trial_index":6,"time_elapsed":66746,"internal_node_id":"0.0-6.0-0.0","responseType":"finish","participantID":"2rh93lznvtsxed79ztz9yp829twnqztj","anagrams_seen":"PONHE","anagrams_answers":"PHONE"},{"rt":17713,"responses":"{\"Q0\":5}","trial_type":"survey-likert","trial_index":7,"time_elapsed":84464,"internal_node_id":"0.0-7.0-0.0","responseType":"finish","participantID":"2rh93lznvtsxed79ztz9yp829twnqztj","anagrams_seen":"PONHE","anagrams_answers":"PHONE"}],"__v":0}
{"_id":{"$oid":"5d4cd5a0aae0e500046eab69"},"data":[{"rt":4299,"responses":"{\"Q0\":\" I consent to participate\"}","trial_type":"survey-multi-choice","trial_index":0,"time_elapsed":4304,"internal_node_id":"0.0-0.0","responseType":"finish","participantID":"ld4b9e3ulsf1kmth2b6fdan6pabfs5r0","anagrams_seen":"PREOK","anagrams_answers":"POKER"},{"trial_type":"call-function","trial_index":1,"time_elapsed":4314,"internal_node_id":"0.0-1.0","responseType":"finish","participantID":"ld4b9e3ulsf1kmth2b6fdan6pabfs5r0","anagrams_seen":"PREOK","anagrams_answers":"POKER"},{"view_history":"[{\"page_index\":0,\"viewing_time\":8155},{\"page_index\":1,\"viewing_time\":3251}]","rt":11407,"trial_type":"instructions","trial_index":2,"time_elapsed":15722,"internal_node_id":"0.0-2.0","responseType":"finish","participantID":"ld4b9e3ulsf1kmth2b6fdan6pabfs5r0","anagrams_seen":"PREOK","anagrams_answers":"POKER"},{"rt":1323,"stimulus":"\u003cblockquote\u003e\n  \u003cp\u003eNow the anagram will be shown to you. \u003cbr\u003e\u003cbr\u003e Press 'v' to view the anagram.\u003c/p\u003e\n\u003c/blockquote\u003e","key_press":86,"trial_type":"html-keyboard-response","trial_index":3,"time_elapsed":17047,"internal_node_id":"0.0-3.0","responseType":"finish","participantID":"ld4b9e3ulsf1kmth2b6fdan6pabfs5r0","anagrams_seen":"PREOK","anagrams_answers":"POKER"},{"rt":null,"stimulus":"\u003cb\u003e\u003ccenter\u003e\u003ch2\u003e\u003cp\u003ePREOK\u003c/p\u003e\u003c/h2\u003e\u003c/center\u003e\u003c/b\u003e","key_press":null,"trial_type":"html-keyboard-response","trial_index":4,"time_elapsed":17553,"internal_node_id":"0.0-4.0","responseType":"finish","participantID":"ld4b9e3ulsf1kmth2b6fdan6pabfs5r0","anagrams_seen":"PREOK","anagrams_answers":"POKER"},{"rt":4436.390000046231,"response":"4","stimulus":"\u003cp\u003eHow long do you think it will take you to solve this anagram?\u003c/p\u003e","trial_type":"html-slider-response","trial_index":5,"time_elapsed":21992,"internal_node_id":"0.0-5.0","responseType":"finish","participantID":"ld4b9e3ulsf1kmth2b6fdan6pabfs5r0","anagrams_seen":"PREOK","anagrams_answers":"POKER"},{"rt":51462,"responses":"{\"Q0\":\"proke\"}","trial_type":"survey-text","trial_index":6,"time_elapsed":73457,"internal_node_id":"0.0-6.0-0.0","responseType":"finish","participantID":"ld4b9e3ulsf1kmth2b6fdan6pabfs5r0","anagrams_seen":"PREOK","anagrams_answers":"POKER"},{"rt":16201,"responses":"{\"Q0\":\"NEXT\"}","trial_type":"survey-text","trial_index":7,"time_elapsed":90879,"internal_node_id":"0.0-6.1-0.1","responseType":"finish","participantID":"ld4b9e3ulsf1kmth2b6fdan6pabfs5r0","anagrams_seen":"PREOK","anagrams_answers":"POKER"},{"rt":6492,"responses":"{\"Q0\":0}","trial_type":"survey-likert","trial_index":8,"time_elapsed":97374,"internal_node_id":"0.0-7.0-0.0","responseType":"finish","participantID":"ld4b9e3ulsf1kmth2b6fdan6pabfs5r0","anagrams_seen":"PREOK","anagrams_answers":"POKER"}],"__v":0}
{"_id":{"$oid":"5d4cd9dbaae0e500046eab6a"},"data":{"responseType":"start","participantID":"k9ebcbfac6a2vhjjlt2eovyszbtj8zg5","anagrams_seen":"KHAOMCM","anagrams_answers":"HAMMOCK"},"__v":0}
{"_id":{"$oid":"5d4cda13aae0e500046eab6b"},"data":[{"rt":6993,"responses":"{\"Q0\":\" I consent to participate\"}","trial_type":"survey-multi-choice","trial_index":0,"time_elapsed":6997,"internal_node_id":"0.0-0.0","responseType":"finish","participantID":"k9ebcbfac6a2vhjjlt2eovyszbtj8zg5","anagrams_seen":"KHAOMCM","anagrams_answers":"HAMMOCK"},{"trial_type":"call-function","trial_index":1,"time_elapsed":7000,"internal_node_id":"0.0-1.0","responseType":"finish","participantID":"k9ebcbfac6a2vhjjlt2eovyszbtj8zg5","anagrams_seen":"KHAOMCM","anagrams_answers":"HAMMOCK"},{"view_history":"[{\"page_index\":0,\"viewing_time\":13154},{\"page_index\":1,\"viewing_time\":1768}]","rt":14923,"trial_type":"instructions","trial_index":2,"time_elapsed":21924,"internal_node_id":"0.0-2.0","responseType":"finish","participantID":"k9ebcbfac6a2vhjjlt2eovyszbtj8zg5","anagrams_seen":"KHAOMCM","anagrams_answers":"HAMMOCK"},{"rt":4820,"stimulus":"\u003cblockquote\u003e\n  \u003cp\u003eNow the anagram will be shown to you. \u003cbr\u003e\u003cbr\u003e Press 'v' to view the anagram.\u003c/p\u003e\n\u003c/blockquote\u003e","key_press":86,"trial_type":"html-keyboard-response","trial_index":3,"time_elapsed":26746,"internal_node_id":"0.0-3.0","responseType":"finish","participantID":"k9ebcbfac6a2vhjjlt2eovyszbtj8zg5","anagrams_seen":"KHAOMCM","anagrams_answers":"HAMMOCK"},{"rt":null,"stimulus":"\u003cb\u003e\u003ccenter\u003e\u003ch2\u003e\u003cp\u003eKHAOMCM\u003c/p\u003e\u003c/h2\u003e\u003c/center\u003e\u003c/b\u003e","key_press":null,"trial_type":"html-keyboard-response","trial_index":4,"time_elapsed":27266,"internal_node_id":"0.0-4.0","responseType":"finish","participantID":"k9ebcbfac6a2vhjjlt2eovyszbtj8zg5","anagrams_seen":"KHAOMCM","anagrams_answers":"HAMMOCK"},{"rt":4982,"response":"3.8","stimulus":"\u003cp\u003eHow long do you think it will take you to solve this anagram?\u003c/p\u003e","trial_type":"html-slider-response","trial_index":5,"time_elapsed":32251,"internal_node_id":"0.0-5.0","responseType":"finish","participantID":"k9ebcbfac6a2vhjjlt2eovyszbtj8zg5","anagrams_seen":"KHAOMCM","anagrams_answers":"HAMMOCK"},{"rt":17727,"responses":"{\"Q0\":\"NEXT\"}","trial_type":"survey-text","trial_index":6,"time_elapsed":49980,"internal_node_id":"0.0-6.0-0.0","responseType":"finish","participantID":"k9ebcbfac6a2vhjjlt2eovyszbtj8zg5","anagrams_seen":"KHAOMCM","anagrams_answers":"HAMMOCK"},{"rt":13190,"responses":"{\"Q0\":5}","trial_type":"survey-likert","trial_index":7,"time_elapsed":63172,"internal_node_id":"0.0-7.0-0.0","responseType":"finish","participantID":"k9ebcbfac6a2vhjjlt2eovyszbtj8zg5","anagrams_seen":"KHAOMCM","anagrams_answers":"HAMMOCK"}],"__v":0}
{"_id":{"$oid":"5d4cdb72aae0e500046eab6c"},"data":{"responseType":"start","participantID":"xsud69g9eznxjlgl9um2e56n4wkywgtt","anagrams_seen":"YJAKWLA","anagrams_answers":"JAYWALK"},"__v":0}
{"_id":{"$oid":"5d4cdb89aae0e500046eab6d"},"data":[{"rt":5477,"responses":"{\"Q0\":\" I consent to participate\"}","trial_type":"survey-multi-choice","trial_index":0,"time_elapsed":5480,"internal_node_id":"0.0-0.0","responseType":"finish","participantID":"xsud69g9eznxjlgl9um2e56n4wkywgtt","anagrams_seen":"YJAKWLA","anagrams_answers":"JAYWALK"},{"trial_type":"call-function","trial_index":1,"time_elapsed":5484,"internal_node_id":"0.0-1.0","responseType":"finish","participantID":"xsud69g9eznxjlgl9um2e56n4wkywgtt","anagrams_seen":"YJAKWLA","anagrams_answers":"JAYWALK"},{"view_history":"[{\"page_index\":0,\"viewing_time\":3923},{\"page_index\":1,\"viewing_time\":1908}]","rt":5832,"trial_type":"instructions","trial_index":2,"time_elapsed":11316,"internal_node_id":"0.0-2.0","responseType":"finish","participantID":"xsud69g9eznxjlgl9um2e56n4wkywgtt","anagrams_seen":"YJAKWLA","anagrams_answers":"JAYWALK"},{"rt":1982,"stimulus":"\u003cblockquote\u003e\n  \u003cp\u003eNow the anagram will be shown to you. \u003cbr\u003e\u003cbr\u003e Press 'v' to view the anagram.\u003c/p\u003e\n\u003c/blockquote\u003e","key_press":86,"trial_type":"html-keyboard-response","trial_index":3,"time_elapsed":13298,"internal_node_id":"0.0-3.0","responseType":"finish","participantID":"xsud69g9eznxjlgl9um2e56n4wkywgtt","anagrams_seen":"YJAKWLA","anagrams_answers":"JAYWALK"},{"rt":null,"stimulus":"\u003cb\u003e\u003ccenter\u003e\u003ch2\u003e\u003cp\u003eYJAKWLA\u003c/p\u003e\u003c/h2\u003e\u003c/center\u003e\u003c/b\u003e","key_press":null,"trial_type":"html-keyboard-response","trial_index":4,"time_elapsed":13805,"internal_node_id":"0.0-4.0","responseType":"finish","participantID":"xsud69g9eznxjlgl9um2e56n4wkywgtt","anagrams_seen":"YJAKWLA","anagrams_answers":"JAYWALK"},{"rt":3191.0400000051595,"response":"3.5","stimulus":"\u003cp\u003eHow long do you think it will take you to solve this anagram?\u003c/p\u003e","trial_type":"html-slider-response","trial_index":5,"time_elapsed":16997,"internal_node_id":"0.0-5.0","responseType":"finish","participantID":"xsud69g9eznxjlgl9um2e56n4wkywgtt","anagrams_seen":"YJAKWLA","anagrams_answers":"JAYWALK"},{"rt":7723,"responses":"{\"Q0\":\"NEXT\"}","trial_type":"survey-text","trial_index":6,"time_elapsed":24722,"internal_node_id":"0.0-6.0-0.0","responseType":"finish","participantID":"xsud69g9eznxjlgl9um2e56n4wkywgtt","anagrams_seen":"YJAKWLA","anagrams_answers":"JAYWALK"},{"rt":3650,"responses":"{\"Q0\":0}","trial_type":"survey-likert","trial_index":7,"time_elapsed":28374,"internal_node_id":"0.0-7.0-0.0","responseType":"finish","participantID":"xsud69g9eznxjlgl9um2e56n4wkywgtt","anagrams_seen":"YJAKWLA","anagrams_answers":"JAYWALK"}],"__v":0}
{"_id":{"$oid":"5d4cdc53aae0e500046eab6e"},"data":{"responseType":"start","participantID":"1qz2y9j2mqmzpne58f7c492qa6nhjeh5","anagrams_seen":"WROD","anagrams_answers":"WORD"},"__v":0}
{"_id":{"$oid":"5d4cdc69aae0e500046eab6f"},"data":[{"rt":8599,"responses":"{\"Q0\":\" I consent to participate\"}","trial_type":"survey-multi-choice","trial_index":0,"time_elapsed":8606,"internal_node_id":"0.0-0.0","responseType":"finish","participantID":"1qz2y9j2mqmzpne58f7c492qa6nhjeh5","anagrams_seen":"WROD","anagrams_answers":"WORD"},{"trial_type":"call-function","trial_index":1,"time_elapsed":8616,"internal_node_id":"0.0-1.0","responseType":"finish","participantID":"1qz2y9j2mqmzpne58f7c492qa6nhjeh5","anagrams_seen":"WROD","anagrams_answers":"WORD"},{"view_history":"[{\"page_index\":0,\"viewing_time\":1637},{\"page_index\":1,\"viewing_time\":5534}]","rt":7172,"trial_type":"instructions","trial_index":2,"time_elapsed":15789,"internal_node_id":"0.0-2.0","responseType":"finish","participantID":"1qz2y9j2mqmzpne58f7c492qa6nhjeh5","anagrams_seen":"WROD","anagrams_answers":"WORD"},{"rt":2083,"stimulus":"\u003cblockquote\u003e\n  \u003cp\u003eNow the anagram will be shown to you. \u003cbr\u003e\u003cbr\u003e Press 'v' to view the anagram.\u003c/p\u003e\n\u003c/blockquote\u003e","key_press":86,"trial_type":"html-keyboard-response","trial_index":3,"time_elapsed":17876,"internal_node_id":"0.0-3.0","responseType":"finish","participantID":"1qz2y9j2mqmzpne58f7c492qa6nhjeh5","anagrams_seen":"WROD","anagrams_answers":"WORD"},{"rt":null,"stimulus":"\u003cb\u003e\u003ccenter\u003e\u003ch2\u003e\u003cp\u003eWROD\u003c/p\u003e\u003c/h2\u003e\u003c/center\u003e\u003c/b\u003e","key_press":null,"trial_type":"html-keyboard-response","trial_index":4,"time_elapsed":18394,"internal_node_id":"0.0-4.0","responseType":"finish","participantID":"1qz2y9j2mqmzpne58f7c492qa6nhjeh5","anagrams_seen":"WROD","anagrams_answers":"WORD"},{"rt":3743.1349999969825,"response":"0.1","stimulus":"\u003cp\u003eHow long do you think it will take you to solve this anagram?\u003c/p\u003e","trial_type":"html-slider-response","trial_index":5,"time_elapsed":22142,"internal_node_id":"0.0-5.0","responseType":"finish","participantID":"1qz2y9j2mqmzpne58f7c492qa6nhjeh5","anagrams_seen":"WROD","anagrams_answers":"WORD"},{"rt":2453,"responses":"{\"Q0\":\"word\"}","trial_type":"survey-text","trial_index":6,"time_elapsed":24599,"internal_node_id":"0.0-6.0-0.0","responseType":"finish","participantID":"1qz2y9j2mqmzpne58f7c492qa6nhjeh5","anagrams_seen":"WROD","anagrams_answers":"WORD"},{"rt":6630,"responses":"{\"Q0\":5}","trial_type":"survey-likert","trial_index":7,"time_elapsed":31234,"internal_node_id":"0.0-7.0-0.0","responseType":"finish","participantID":"1qz2y9j2mqmzpne58f7c492qa6nhjeh5","anagrams_seen":"WROD","anagrams_answers":"WORD"}],"__v":0}
{"_id":{"$oid":"5d4cdc97aae0e500046eab70"},"data":{"responseType":"start","participantID":"e6mo3apcne7qnjrku8c9hlwwyvthdpdb","anagrams_seen":"SROT","anagrams_answers":"SORT"},"__v":0}
{"_id":{"$oid":"5d4cdd0baae0e500046eab71"},"data":[{"rt":10221,"responses":"{\"Q0\":\" I consent to participate\"}","trial_type":"survey-multi-choice","trial_index":0,"time_elapsed":10228,"internal_node_id":"0.0-0.0","responseType":"finish","participantID":"e6mo3apcne7qnjrku8c9hlwwyvthdpdb","anagrams_seen":"SROT","anagrams_answers":"SORT"},{"trial_type":"call-function","trial_index":1,"time_elapsed":10241,"internal_node_id":"0.0-1.0","responseType":"finish","participantID":"e6mo3apcne7qnjrku8c9hlwwyvthdpdb","anagrams_seen":"SROT","anagrams_answers":"SORT"},{"view_history":"[{\"page_index\":0,\"viewing_time\":8212},{\"page_index\":1,\"viewing_time\":9729}]","rt":17943,"trial_type":"instructions","trial_index":2,"time_elapsed":28185,"internal_node_id":"0.0-2.0","responseType":"finish","participantID":"e6mo3apcne7qnjrku8c9hlwwyvthdpdb","anagrams_seen":"SROT","anagrams_answers":"SORT"},{"rt":2596,"stimulus":"\u003cblockquote\u003e\n  \u003cp\u003eNow the anagram will be shown to you. \u003cbr\u003e\u003cbr\u003e Press 'v' to view the anagram.\u003c/p\u003e\n\u003c/blockquote\u003e","key_press":86,"trial_type":"html-keyboard-response","trial_index":3,"time_elapsed":30784,"internal_node_id":"0.0-3.0","responseType":"finish","participantID":"e6mo3apcne7qnjrku8c9hlwwyvthdpdb","anagrams_seen":"SROT","anagrams_answers":"SORT"},{"rt":null,"stimulus":"\u003cb\u003e\u003ccenter\u003e\u003ch2\u003e\u003cp\u003eSROT\u003c/p\u003e\u003c/h2\u003e\u003c/center\u003e\u003c/b\u003e","key_press":null,"trial_type":"html-keyboard-response","trial_index":4,"time_elapsed":31294,"internal_node_id":"0.0-4.0","responseType":"finish","participantID":"e6mo3apcne7qnjrku8c9hlwwyvthdpdb","anagrams_seen":"SROT","anagrams_answers":"SORT"},{"rt":6128.834999995888,"response":"1.4","stimulus":"\u003cp\u003eHow long do you think it will take you to solve this anagram?\u003c/p\u003e","trial_type":"html-slider-response","trial_index":5,"time_elapsed":37427,"internal_node_id":"0.0-5.0","responseType":"finish","participantID":"e6mo3apcne7qnjrku8c9hlwwyvthdpdb","anagrams_seen":"SROT","anagrams_answers":"SORT"},{"rt":4482,"responses":"{\"Q0\":\"rots\"}","trial_type":"survey-text","trial_index":6,"time_elapsed":41914,"internal_node_id":"0.0-6.0-0.0","responseType":"finish","participantID":"e6mo3apcne7qnjrku8c9hlwwyvthdpdb","anagrams_seen":"SROT","anagrams_answers":"SORT"},{"rt":6601,"responses":"{\"Q0\":\"ROTS\"}","trial_type":"survey-text","trial_index":7,"time_elapsed":50623,"internal_node_id":"0.0-6.1-0.1","responseType":"finish","participantID":"e6mo3apcne7qnjrku8c9hlwwyvthdpdb","anagrams_seen":"SROT","anagrams_answers":"SORT"},{"rt":28245,"responses":"{\"Q0\":\"STOR\"}","trial_type":"survey-text","trial_index":8,"time_elapsed":80077,"internal_node_id":"0.0-6.2-0.2","responseType":"finish","participantID":"e6mo3apcne7qnjrku8c9hlwwyvthdpdb","anagrams_seen":"SROT","anagrams_answers":"SORT"},{"rt":13984,"responses":"{\"Q0\":\"TORS\"}","trial_type":"survey-text","trial_index":9,"time_elapsed":95336,"internal_node_id":"0.0-6.3-0.3","responseType":"finish","participantID":"e6mo3apcne7qnjrku8c9hlwwyvthdpdb","anagrams_seen":"SROT","anagrams_answers":"SORT"},{"rt":20473,"responses":"{\"Q0\":\"NEXT\"}","trial_type":"survey-text","trial_index":10,"time_elapsed":117285,"internal_node_id":"0.0-6.4-0.4","responseType":"finish","participantID":"e6mo3apcne7qnjrku8c9hlwwyvthdpdb","anagrams_seen":"SROT","anagrams_answers":"SORT"},{"rt":7984,"responses":"{\"Q0\":0}","trial_type":"survey-likert","trial_index":11,"time_elapsed":125276,"internal_node_id":"0.0-7.0-0.0","responseType":"finish","participantID":"e6mo3apcne7qnjrku8c9hlwwyvthdpdb","anagrams_seen":"SROT","anagrams_answers":"SORT"}],"__v":0}
{"_id":{"$oid":"5d4cdd97aae0e500046eab72"},"data":{"responseType":"start","participantID":"u7zys08eb9116s38uezeucs1zf0052mu","anagrams_seen":"TEH","anagrams_answers":"THE"},"__v":0}
{"_id":{"$oid":"5d4cdddeaae0e500046eab73"},"data":[{"rt":8408,"responses":"{\"Q0\":\" I consent to participate\"}","trial_type":"survey-multi-choice","trial_index":0,"time_elapsed":8434,"internal_node_id":"0.0-0.0","responseType":"finish","participantID":"u7zys08eb9116s38uezeucs1zf0052mu","anagrams_seen":"TEH","anagrams_answers":"THE"},{"trial_type":"call-function","trial_index":1,"time_elapsed":8456,"internal_node_id":"0.0-1.0","responseType":"finish","participantID":"u7zys08eb9116s38uezeucs1zf0052mu","anagrams_seen":"TEH","anagrams_answers":"THE"},{"view_history":"[{\"page_index\":0,\"viewing_time\":11611},{\"page_index\":1,\"viewing_time\":28922}]","rt":40536,"trial_type":"instructions","trial_index":2,"time_elapsed":48993,"internal_node_id":"0.0-2.0","responseType":"finish","participantID":"u7zys08eb9116s38uezeucs1zf0052mu","anagrams_seen":"TEH","anagrams_answers":"THE"},{"rt":3844,"stimulus":"\u003cblockquote\u003e\n  \u003cp\u003eNow the anagram will be shown to you. \u003cbr\u003e\u003cbr\u003e Press 'v' to view the anagram.\u003c/p\u003e\n\u003c/blockquote\u003e","key_press":86,"trial_type":"html-keyboard-response","trial_index":3,"time_elapsed":52842,"internal_node_id":"0.0-3.0","responseType":"finish","participantID":"u7zys08eb9116s38uezeucs1zf0052mu","anagrams_seen":"TEH","anagrams_answers":"THE"},{"rt":null,"stimulus":"\u003cb\u003e\u003ccenter\u003e\u003ch2\u003e\u003cp\u003eTEH\u003c/p\u003e\u003c/h2\u003e\u003c/center\u003e\u003c/b\u003e","key_press":null,"trial_type":"html-keyboard-response","trial_index":4,"time_elapsed":53360,"internal_node_id":"0.0-4.0","responseType":"finish","participantID":"u7zys08eb9116s38uezeucs1zf0052mu","anagrams_seen":"TEH","anagrams_answers":"THE"},{"rt":6858.285000009346,"response":"0","stimulus":"\u003cp\u003eHow long do you think it will take you to solve this anagram?\u003c/p\u003e","trial_type":"html-slider-response","trial_index":5,"time_elapsed":60231,"internal_node_id":"0.0-5.0","responseType":"finish","participantID":"u7zys08eb9116s38uezeucs1zf0052mu","anagrams_seen":"TEH","anagrams_answers":"THE"},{"rt":6788,"responses":"{\"Q0\":\"THE\"}","trial_type":"survey-text","trial_index":6,"time_elapsed":67028,"internal_node_id":"0.0-6.0-0.0","responseType":"finish","participantID":"u7zys08eb9116s38uezeucs1zf0052mu","anagrams_seen":"TEH","anagrams_answers":"THE"},{"rt":12146,"responses":"{\"Q0\":1}","trial_type":"survey-likert","trial_index":7,"time_elapsed":79187,"internal_node_id":"0.0-7.0-0.0","responseType":"finish","participantID":"u7zys08eb9116s38uezeucs1zf0052mu","anagrams_seen":"TEH","anagrams_answers":"THE"}],"__v":0}
{"_id":{"$oid":"5d4ce004aae0e500046eab74"},"data":{"responseType":"start","participantID":"lqpg6dqce8p5cgv6c5cxwqbjpasxfk0k","anagrams_seen":"BLEL","anagrams_answers":"BELL"},"__v":0}
{"_id":{"$oid":"5d4ce8d192f178000401eb4b"},"data":{"responseType":"start","participantID":"vy2n31x0rczyb3f57qc9lrslrjlex8kl","anagrams_seen":"PONHE","anagrams_answers":"PHONE"},"__v":0}
{"_id":{"$oid":"5d4ce8eb92f178000401eb4c"},"data":[{"rt":3158,"responses":"{\"Q0\":\" I consent to participate\"}","trial_type":"survey-multi-choice","trial_index":0,"time_elapsed":3162,"internal_node_id":"0.0-0.0","responseType":"finish","participantID":"vy2n31x0rczyb3f57qc9lrslrjlex8kl","anagrams_seen":"PONHE","anagrams_answers":"PHONE"},{"trial_type":"call-function","trial_index":1,"time_elapsed":3171,"internal_node_id":"0.0-1.0","responseType":"finish","participantID":"vy2n31x0rczyb3f57qc9lrslrjlex8kl","anagrams_seen":"PONHE","anagrams_answers":"PHONE"},{"view_history":"[{\"page_index\":0,\"viewing_time\":5994},{\"page_index\":1,\"viewing_time\":4037}]","rt":10032,"trial_type":"instructions","trial_index":2,"time_elapsed":13203,"internal_node_id":"0.0-2.0","responseType":"finish","participantID":"vy2n31x0rczyb3f57qc9lrslrjlex8kl","anagrams_seen":"PONHE","anagrams_answers":"PHONE"},{"rt":2002,"stimulus":"\u003cblockquote\u003e\n  \u003cp\u003eNow the anagram will be shown to you. \u003cbr\u003e\u003cbr\u003e Press 'v' to view the anagram.\u003c/p\u003e\n\u003c/blockquote\u003e","key_press":86,"trial_type":"html-keyboard-response","trial_index":3,"time_elapsed":15206,"internal_node_id":"0.0-3.0","responseType":"finish","participantID":"vy2n31x0rczyb3f57qc9lrslrjlex8kl","anagrams_seen":"PONHE","anagrams_answers":"PHONE"},{"rt":null,"stimulus":"\u003cb\u003e\u003ccenter\u003e\u003ch2\u003e\u003cp\u003ePONHE\u003c/p\u003e\u003c/h2\u003e\u003c/center\u003e\u003c/b\u003e","key_press":null,"trial_type":"html-keyboard-response","trial_index":4,"time_elapsed":15766,"internal_node_id":"0.0-4.0","responseType":"finish","participantID":"vy2n31x0rczyb3f57qc9lrslrjlex8kl","anagrams_seen":"PONHE","anagrams_answers":"PHONE"},{"rt":3635.0950000050943,"response":"0","stimulus":"\u003cp\u003eHow long do you think it will take you to solve this anagram?\u003c/p\u003e","trial_type":"html-slider-response","trial_index":5,"time_elapsed":19405,"internal_node_id":"0.0-5.0","responseType":"finish","participantID":"vy2n31x0rczyb3f57qc9lrslrjlex8kl","anagrams_seen":"PONHE","anagrams_answers":"PHONE"},{"rt":3571,"responses":"{\"Q0\":\"phone\"}","trial_type":"survey-text","trial_index":6,"time_elapsed":22978,"internal_node_id":"0.0-6.0-0.0","responseType":"finish","participantID":"vy2n31x0rczyb3f57qc9lrslrjlex8kl","anagrams_seen":"PONHE","anagrams_answers":"PHONE"},{"rt":5550,"responses":"{\"Q0\":1}","trial_type":"survey-likert","trial_index":7,"time_elapsed":28530,"internal_node_id":"0.0-7.0-0.0","responseType":"finish","participantID":"vy2n31x0rczyb3f57qc9lrslrjlex8kl","anagrams_seen":"PONHE","anagrams_answers":"PHONE"}],"__v":0}
{"_id":{"$oid":"5d4cee3e92f178000401eb4d"},"data":{"responseType":"start","participantID":"b0bb7g5zkwxmyje4cnrz4kux8t11mkzh","anagrams_seen":"BLEL","anagrams_answers":"BELL"},"__v":0}
{"_id":{"$oid":"5d4cef3992f178000401eb4e"},"data":{"responseType":"start","participantID":"uxbcyxo73pkrvlzbxaru01vf3ovw6x1d","anagrams_seen":"VLVOO","anagrams_answers":"VOLVO"},"__v":0}
