{"_id":{"$oid":"5d48e5201f672b0004531063"},"data":{"responseType":"start","participantID":"zpu4dzetxcohvbn3fauq2bll2oa1sx68"},"__v":0}
{"_id":{"$oid":"5d48e52c1f672b0004531064"},"data":{"responseType":"start","participantID":"ca8ytsv7qunkvyqw01q50shgz7ukmd0z"},"__v":0}
{"_id":{"$oid":"5d48e5361f672b0004531065"},"data":{"responseType":"start","participantID":"98hu412cgptsn4xv07v43te85saocyaz"},"__v":0}
{"_id":{"$oid":"5d48e5841f672b0004531066"},"data":[{"rt":5346,"responses":"{\"Q0\":\" I consent to participate\"}","trial_type":"survey-multi-choice","trial_index":0,"time_elapsed":5356,"internal_node_id":"0.0-0.0","responseType":"finish","participantID":"ca8ytsv7qunkvyqw01q50shgz7ukmd0z"},{"trial_type":"call-function","trial_index":1,"time_elapsed":5376,"internal_node_id":"0.0-1.0","responseType":"finish","participantID":"ca8ytsv7qunkvyqw01q50shgz7ukmd0z"},{"view_history":"[{\"page_index\":0,\"viewing_time\":7159},{\"page_index\":1,\"viewing_time\":8000}]","rt":15160,"trial_type":"instructions","trial_index":2,"time_elapsed":20537,"internal_node_id":"0.0-2.0","responseType":"finish","participantID":"ca8ytsv7qunkvyqw01q50shgz7ukmd0z"},{"rt":2406,"stimulus":"\u003cblockquote\u003e\n  \u003cp\u003eNow an anagram will be shown to you. \u003cbr\u003e\u003cbr\u003e Press 'v' to view the anagram.\u003c/p\u003e\n\u003c/blockquote\u003e","key_press":86,"trial_type":"html-keyboard-response","trial_index":3,"time_elapsed":22946,"internal_node_id":"0.0-3.0-0.0","responseType":"finish","participantID":"ca8ytsv7qunkvyqw01q50shgz7ukmd0z"},{"rt":null,"stimulus":"\u003cb\u003e\u003ccenter\u003e\u003ch2\u003e\u003cp\u003eTEH\u003c/p\u003e\u003c/h2\u003e\u003c/center\u003e\u003c/b\u003e","key_press":null,"trial_type":"html-keyboard-response","trial_index":4,"time_elapsed":23457,"internal_node_id":"0.0-3.0-1.0","responseType":"finish","participantID":"ca8ytsv7qunkvyqw01q50shgz7ukmd0z"},{"rt":6073.8450000062585,"response":"0.1","stimulus":"\u003cp\u003eHow long do you think it will take you to solve this anagram?\u003c/p\u003e","trial_type":"html-slider-response","trial_index":5,"time_elapsed":29535,"internal_node_id":"0.0-3.0-2.0","responseType":"finish","participantID":"ca8ytsv7qunkvyqw01q50shgz7ukmd0z"},{"rt":8007,"responses":"{\"Q0\":\"THE\"}","trial_type":"survey-text","trial_index":6,"time_elapsed":37546,"internal_node_id":"0.0-3.0-3.0-0.0","responseType":"finish","participantID":"ca8ytsv7qunkvyqw01q50shgz7ukmd0z"},{"rt":4683,"responses":"{\"Q0\":6}","trial_type":"survey-likert","trial_index":7,"time_elapsed":42236,"internal_node_id":"0.0-3.0-4.0-0.0","responseType":"finish","participantID":"ca8ytsv7qunkvyqw01q50shgz7ukmd0z"},{"rt":9837,"responses":"{\"Q0\":3}","trial_type":"survey-likert","trial_index":8,"time_elapsed":52085,"internal_node_id":"0.0-3.0-4.0-0.1","responseType":"finish","participantID":"ca8ytsv7qunkvyqw01q50shgz7ukmd0z"},{"rt":1995,"stimulus":"\u003cblockquote\u003e\n  \u003cp\u003eNow an anagram will be shown to you. \u003cbr\u003e\u003cbr\u003e Press 'v' to view the anagram.\u003c/p\u003e\n\u003c/blockquote\u003e","key_press":86,"trial_type":"html-keyboard-response","trial_index":9,"time_elapsed":54091,"internal_node_id":"0.0-3.1-0.1","responseType":"finish","participantID":"ca8ytsv7qunkvyqw01q50shgz7ukmd0z"},{"rt":null,"stimulus":"\u003cb\u003e\u003ccenter\u003e\u003ch2\u003e\u003cp\u003eVLVOO\u003c/p\u003e\u003c/h2\u003e\u003c/center\u003e\u003c/b\u003e","key_press":null,"trial_type":"html-keyboard-response","trial_index":10,"time_elapsed":54601,"internal_node_id":"0.0-3.1-1.1","responseType":"finish","participantID":"ca8ytsv7qunkvyqw01q50shgz7ukmd0z"},{"rt":3739.375000121072,"response":"2.3","stimulus":"\u003cp\u003eHow long do you think it will take you to solve this anagram?\u003c/p\u003e","trial_type":"html-slider-response","trial_index":11,"time_elapsed":58345,"internal_node_id":"0.0-3.1-2.1","responseType":"finish","participantID":"ca8ytsv7qunkvyqw01q50shgz7ukmd0z"},{"rt":5097,"responses":"{\"Q0\":\"volvo\"}","trial_type":"survey-text","trial_index":12,"time_elapsed":63444,"internal_node_id":"0.0-3.1-3.1-0.1","responseType":"finish","participantID":"ca8ytsv7qunkvyqw01q50shgz7ukmd0z"},{"rt":4257,"responses":"{\"Q0\":5}","trial_type":"survey-likert","trial_index":13,"time_elapsed":67706,"internal_node_id":"0.0-3.1-4.1-0.2","responseType":"finish","participantID":"ca8ytsv7qunkvyqw01q50shgz7ukmd0z"},{"rt":5480,"responses":"{\"Q0\":5}","trial_type":"survey-likert","trial_index":14,"time_elapsed":73199,"internal_node_id":"0.0-3.1-4.1-0.3","responseType":"finish","participantID":"ca8ytsv7qunkvyqw01q50shgz7ukmd0z"},{"rt":2290,"stimulus":"\u003cblockquote\u003e\n  \u003cp\u003eNow an anagram will be shown to you. \u003cbr\u003e\u003cbr\u003e Press 'v' to view the anagram.\u003c/p\u003e\n\u003c/blockquote\u003e","key_press":86,"trial_type":"html-keyboard-response","trial_index":15,"time_elapsed":75504,"internal_node_id":"0.0-3.2-0.2","responseType":"finish","participantID":"ca8ytsv7qunkvyqw01q50shgz7ukmd0z"},{"rt":null,"stimulus":"\u003cb\u003e\u003ccenter\u003e\u003ch2\u003e\u003cp\u003eOGANRCI\u003c/p\u003e\u003c/h2\u003e\u003c/center\u003e\u003c/b\u003e","key_press":null,"trial_type":"html-keyboard-response","trial_index":16,"time_elapsed":76007,"internal_node_id":"0.0-3.2-1.2","responseType":"finish","participantID":"ca8ytsv7qunkvyqw01q50shgz7ukmd0z"},{"rt":3151.5299999155104,"response":"0.1","stimulus":"\u003cp\u003eHow long do you think it will take you to solve this anagram?\u003c/p\u003e","trial_type":"html-slider-response","trial_index":17,"time_elapsed":79162,"internal_node_id":"0.0-3.2-2.2","responseType":"finish","participantID":"ca8ytsv7qunkvyqw01q50shgz7ukmd0z"},{"rt":3687,"responses":"{\"Q0\":\"organic\"}","trial_type":"survey-text","trial_index":18,"time_elapsed":82851,"internal_node_id":"0.0-3.2-3.2-0.2","responseType":"finish","participantID":"ca8ytsv7qunkvyqw01q50shgz7ukmd0z"},{"rt":5612,"responses":"{\"Q0\":4}","trial_type":"survey-likert","trial_index":19,"time_elapsed":88467,"internal_node_id":"0.0-3.2-4.2-0.4","responseType":"finish","participantID":"ca8ytsv7qunkvyqw01q50shgz7ukmd0z"},{"rt":4980,"responses":"{\"Q0\":6}","trial_type":"survey-likert","trial_index":20,"time_elapsed":93457,"internal_node_id":"0.0-3.2-4.2-0.5","responseType":"finish","participantID":"ca8ytsv7qunkvyqw01q50shgz7ukmd0z"}],"__v":0}
{"_id":{"$oid":"5d48e58e1f672b0004531067"},"data":{"responseType":"start","participantID":"rvrygpso54mf9rjvbtfyz52rcuhevgax"},"__v":0}
{"_id":{"$oid":"5d48e5961f672b0004531068"},"data":{"responseType":"start","participantID":"4zel3mez2aj3r54odpgml1e0hng9err0"},"__v":0}
{"_id":{"$oid":"5d48e5b21f672b0004531069"},"data":[{"rt":6121,"responses":"{\"Q0\":\" I consent to participate\"}","trial_type":"survey-multi-choice","trial_index":0,"time_elapsed":6127,"internal_node_id":"0.0-0.0","responseType":"finish","participantID":"zpu4dzetxcohvbn3fauq2bll2oa1sx68"},{"trial_type":"call-function","trial_index":1,"time_elapsed":6133,"internal_node_id":"0.0-1.0","responseType":"finish","participantID":"zpu4dzetxcohvbn3fauq2bll2oa1sx68"},{"view_history":"[{\"page_index\":0,\"viewing_time\":42982},{\"page_index\":1,\"viewing_time\":11776}]","rt":54758,"trial_type":"instructions","trial_index":2,"time_elapsed":60892,"internal_node_id":"0.0-2.0","responseType":"finish","participantID":"zpu4dzetxcohvbn3fauq2bll2oa1sx68"},{"rt":1950,"stimulus":"\u003cblockquote\u003e\n  \u003cp\u003eNow an anagram will be shown to you. \u003cbr\u003e\u003cbr\u003e Press 'v' to view the anagram.\u003c/p\u003e\n\u003c/blockquote\u003e","key_press":86,"trial_type":"html-keyboard-response","trial_index":3,"time_elapsed":62843,"internal_node_id":"0.0-3.0-0.0","responseType":"finish","participantID":"zpu4dzetxcohvbn3fauq2bll2oa1sx68"},{"rt":null,"stimulus":"\u003cb\u003e\u003ccenter\u003e\u003ch2\u003e\u003cp\u003eTEH\u003c/p\u003e\u003c/h2\u003e\u003c/center\u003e\u003c/b\u003e","key_press":null,"trial_type":"html-keyboard-response","trial_index":4,"time_elapsed":63349,"internal_node_id":"0.0-3.0-1.0","responseType":"finish","participantID":"zpu4dzetxcohvbn3fauq2bll2oa1sx68"},{"rt":4893.114999998943,"response":"0","stimulus":"\u003cp\u003eHow long do you think it will take you to solve this anagram?\u003c/p\u003e","trial_type":"html-slider-response","trial_index":5,"time_elapsed":68244,"internal_node_id":"0.0-3.0-2.0","responseType":"finish","participantID":"zpu4dzetxcohvbn3fauq2bll2oa1sx68"},{"rt":6638,"responses":"{\"Q0\":\"the\"}","trial_type":"survey-text","trial_index":6,"time_elapsed":74885,"internal_node_id":"0.0-3.0-3.0-0.0","responseType":"finish","participantID":"zpu4dzetxcohvbn3fauq2bll2oa1sx68"},{"rt":3860,"responses":"{\"Q0\":3}","trial_type":"survey-likert","trial_index":7,"time_elapsed":78749,"internal_node_id":"0.0-3.0-4.0-0.0","responseType":"finish","participantID":"zpu4dzetxcohvbn3fauq2bll2oa1sx68"},{"rt":7573,"responses":"{\"Q0\":0}","trial_type":"survey-likert","trial_index":8,"time_elapsed":86325,"internal_node_id":"0.0-3.0-4.0-0.1","responseType":"finish","participantID":"zpu4dzetxcohvbn3fauq2bll2oa1sx68"},{"rt":2296,"stimulus":"\u003cblockquote\u003e\n  \u003cp\u003eNow an anagram will be shown to you. \u003cbr\u003e\u003cbr\u003e Press 'v' to view the anagram.\u003c/p\u003e\n\u003c/blockquote\u003e","key_press":86,"trial_type":"html-keyboard-response","trial_index":9,"time_elapsed":88623,"internal_node_id":"0.0-3.1-0.1","responseType":"finish","participantID":"zpu4dzetxcohvbn3fauq2bll2oa1sx68"},{"rt":null,"stimulus":"\u003cb\u003e\u003ccenter\u003e\u003ch2\u003e\u003cp\u003eVLVOO\u003c/p\u003e\u003c/h2\u003e\u003c/center\u003e\u003c/b\u003e","key_press":null,"trial_type":"html-keyboard-response","trial_index":10,"time_elapsed":89124,"internal_node_id":"0.0-3.1-1.1","responseType":"finish","participantID":"zpu4dzetxcohvbn3fauq2bll2oa1sx68"},{"rt":7518.75999999902,"response":"1.3","stimulus":"\u003cp\u003eHow long do you think it will take you to solve this anagram?\u003c/p\u003e","trial_type":"html-slider-response","trial_index":11,"time_elapsed":96644,"internal_node_id":"0.0-3.1-2.1","responseType":"finish","participantID":"zpu4dzetxcohvbn3fauq2bll2oa1sx68"},{"rt":27470,"responses":"{\"Q0\":\"volvo\"}","trial_type":"survey-text","trial_index":12,"time_elapsed":124116,"internal_node_id":"0.0-3.1-3.1-0.1","responseType":"finish","participantID":"zpu4dzetxcohvbn3fauq2bll2oa1sx68"},{"rt":6342,"responses":"{\"Q0\":2}","trial_type":"survey-likert","trial_index":13,"time_elapsed":130460,"internal_node_id":"0.0-3.1-4.1-0.2","responseType":"finish","participantID":"zpu4dzetxcohvbn3fauq2bll2oa1sx68"},{"rt":2213,"responses":"{\"Q0\":0}","trial_type":"survey-likert","trial_index":14,"time_elapsed":132677,"internal_node_id":"0.0-3.1-4.1-0.3","responseType":"finish","participantID":"zpu4dzetxcohvbn3fauq2bll2oa1sx68"},{"rt":1510,"stimulus":"\u003cblockquote\u003e\n  \u003cp\u003eNow an anagram will be shown to you. \u003cbr\u003e\u003cbr\u003e Press 'v' to view the anagram.\u003c/p\u003e\n\u003c/blockquote\u003e","key_press":86,"trial_type":"html-keyboard-response","trial_index":15,"time_elapsed":134188,"internal_node_id":"0.0-3.2-0.2","responseType":"finish","participantID":"zpu4dzetxcohvbn3fauq2bll2oa1sx68"},{"rt":null,"stimulus":"\u003cb\u003e\u003ccenter\u003e\u003ch2\u003e\u003cp\u003eOGANRCI\u003c/p\u003e\u003c/h2\u003e\u003c/center\u003e\u003c/b\u003e","key_press":null,"trial_type":"html-keyboard-response","trial_index":16,"time_elapsed":134690,"internal_node_id":"0.0-3.2-1.2","responseType":"finish","participantID":"zpu4dzetxcohvbn3fauq2bll2oa1sx68"},{"rt":3257.0549999945797,"response":"0","stimulus":"\u003cp\u003eHow long do you think it will take you to solve this anagram?\u003c/p\u003e","trial_type":"html-slider-response","trial_index":17,"time_elapsed":137948,"internal_node_id":"0.0-3.2-2.2","responseType":"finish","participantID":"zpu4dzetxcohvbn3fauq2bll2oa1sx68"},{"rt":5759,"responses":"{\"Q0\":\"organic\"}","trial_type":"survey-text","trial_index":18,"time_elapsed":143708,"internal_node_id":"0.0-3.2-3.2-0.2","responseType":"finish","participantID":"zpu4dzetxcohvbn3fauq2bll2oa1sx68"},{"rt":2446,"responses":"{\"Q0\":3}","trial_type":"survey-likert","trial_index":19,"time_elapsed":146157,"internal_node_id":"0.0-3.2-4.2-0.4","responseType":"finish","participantID":"zpu4dzetxcohvbn3fauq2bll2oa1sx68"},{"rt":5894,"responses":"{\"Q0\":0}","trial_type":"survey-likert","trial_index":20,"time_elapsed":152053,"internal_node_id":"0.0-3.2-4.2-0.5","responseType":"finish","participantID":"zpu4dzetxcohvbn3fauq2bll2oa1sx68"}],"__v":0}
{"_id":{"$oid":"5d48e5c81f672b000453106a"},"data":[{"rt":48570,"responses":"{\"Q0\":\" I consent to participate\"}","trial_type":"survey-multi-choice","trial_index":0,"time_elapsed":48574,"internal_node_id":"0.0-0.0","responseType":"finish","participantID":"98hu412cgptsn4xv07v43te85saocyaz"},{"trial_type":"call-function","trial_index":1,"time_elapsed":48578,"internal_node_id":"0.0-1.0","responseType":"finish","participantID":"98hu412cgptsn4xv07v43te85saocyaz"},{"view_history":"[{\"page_index\":0,\"viewing_time\":3643},{\"page_index\":1,\"viewing_time\":5007}]","rt":8651,"trial_type":"instructions","trial_index":2,"time_elapsed":57229,"internal_node_id":"0.0-2.0","responseType":"finish","participantID":"98hu412cgptsn4xv07v43te85saocyaz"},{"rt":2344,"stimulus":"\u003cblockquote\u003e\n  \u003cp\u003eNow an anagram will be shown to you. \u003cbr\u003e\u003cbr\u003e Press 'v' to view the anagram.\u003c/p\u003e\n\u003c/blockquote\u003e","key_press":86,"trial_type":"html-keyboard-response","trial_index":3,"time_elapsed":59574,"internal_node_id":"0.0-3.0-0.0","responseType":"finish","participantID":"98hu412cgptsn4xv07v43te85saocyaz"},{"rt":null,"stimulus":"\u003cb\u003e\u003ccenter\u003e\u003ch2\u003e\u003cp\u003eTEH\u003c/p\u003e\u003c/h2\u003e\u003c/center\u003e\u003c/b\u003e","key_press":null,"trial_type":"html-keyboard-response","trial_index":4,"time_elapsed":60076,"internal_node_id":"0.0-3.0-1.0","responseType":"finish","participantID":"98hu412cgptsn4xv07v43te85saocyaz"},{"rt":4518.764999927953,"response":"0","stimulus":"\u003cp\u003eHow long do you think it will take you to solve this anagram?\u003c/p\u003e","trial_type":"html-slider-response","trial_index":5,"time_elapsed":64597,"internal_node_id":"0.0-3.0-2.0","responseType":"finish","participantID":"98hu412cgptsn4xv07v43te85saocyaz"},{"rt":3142,"responses":"{\"Q0\":\"the\"}","trial_type":"survey-text","trial_index":6,"time_elapsed":67741,"internal_node_id":"0.0-3.0-3.0-0.0","responseType":"finish","participantID":"98hu412cgptsn4xv07v43te85saocyaz"},{"rt":3054,"responses":"{\"Q0\":6}","trial_type":"survey-likert","trial_index":7,"time_elapsed":70797,"internal_node_id":"0.0-3.0-4.0-0.0","responseType":"finish","participantID":"98hu412cgptsn4xv07v43te85saocyaz"},{"rt":9270,"responses":"{\"Q0\":0}","trial_type":"survey-likert","trial_index":8,"time_elapsed":80069,"internal_node_id":"0.0-3.0-4.0-0.1","responseType":"finish","participantID":"98hu412cgptsn4xv07v43te85saocyaz"},{"rt":67598,"stimulus":"\u003cblockquote\u003e\n  \u003cp\u003eNow an anagram will be shown to you. \u003cbr\u003e\u003cbr\u003e Press 'v' to view the anagram.\u003c/p\u003e\n\u003c/blockquote\u003e","key_press":86,"trial_type":"html-keyboard-response","trial_index":9,"time_elapsed":147668,"internal_node_id":"0.0-3.1-0.1","responseType":"finish","participantID":"98hu412cgptsn4xv07v43te85saocyaz"},{"rt":null,"stimulus":"\u003cb\u003e\u003ccenter\u003e\u003ch2\u003e\u003cp\u003eVLVOO\u003c/p\u003e\u003c/h2\u003e\u003c/center\u003e\u003c/b\u003e","key_press":null,"trial_type":"html-keyboard-response","trial_index":10,"time_elapsed":148170,"internal_node_id":"0.0-3.1-1.1","responseType":"finish","participantID":"98hu412cgptsn4xv07v43te85saocyaz"},{"rt":3032.080000033602,"response":"1.3","stimulus":"\u003cp\u003eHow long do you think it will take you to solve this anagram?\u003c/p\u003e","trial_type":"html-slider-response","trial_index":11,"time_elapsed":151204,"internal_node_id":"0.0-3.1-2.1","responseType":"finish","participantID":"98hu412cgptsn4xv07v43te85saocyaz"},{"rt":10567,"responses":"{\"Q0\":\"next\"}","trial_type":"survey-text","trial_index":12,"time_elapsed":161772,"internal_node_id":"0.0-3.1-3.1-0.1","responseType":"finish","participantID":"98hu412cgptsn4xv07v43te85saocyaz"},{"rt":4159,"responses":"{\"Q0\":3}","trial_type":"survey-likert","trial_index":13,"time_elapsed":165932,"internal_node_id":"0.0-3.1-4.1-0.2","responseType":"finish","participantID":"98hu412cgptsn4xv07v43te85saocyaz"},{"rt":4159,"responses":"{\"Q0\":0}","trial_type":"survey-likert","trial_index":14,"time_elapsed":170092,"internal_node_id":"0.0-3.1-4.1-0.3","responseType":"finish","participantID":"98hu412cgptsn4xv07v43te85saocyaz"},{"rt":2159,"stimulus":"\u003cblockquote\u003e\n  \u003cp\u003eNow an anagram will be shown to you. \u003cbr\u003e\u003cbr\u003e Press 'v' to view the anagram.\u003c/p\u003e\n\u003c/blockquote\u003e","key_press":86,"trial_type":"html-keyboard-response","trial_index":15,"time_elapsed":172252,"internal_node_id":"0.0-3.2-0.2","responseType":"finish","participantID":"98hu412cgptsn4xv07v43te85saocyaz"},{"rt":null,"stimulus":"\u003cb\u003e\u003ccenter\u003e\u003ch2\u003e\u003cp\u003eOGANRCI\u003c/p\u003e\u003c/h2\u003e\u003c/center\u003e\u003c/b\u003e","key_press":null,"trial_type":"html-keyboard-response","trial_index":16,"time_elapsed":172754,"internal_node_id":"0.0-3.2-1.2","responseType":"finish","participantID":"98hu412cgptsn4xv07v43te85saocyaz"},{"rt":4976.024999981746,"response":"3","stimulus":"\u003cp\u003eHow long do you think it will take you to solve this anagram?\u003c/p\u003e","trial_type":"html-slider-response","trial_index":17,"time_elapsed":177732,"internal_node_id":"0.0-3.2-2.2","responseType":"finish","participantID":"98hu412cgptsn4xv07v43te85saocyaz"},{"rt":7695,"responses":"{\"Q0\":\"next\"}","trial_type":"survey-text","trial_index":18,"time_elapsed":185428,"internal_node_id":"0.0-3.2-3.2-0.2","responseType":"finish","participantID":"98hu412cgptsn4xv07v43te85saocyaz"},{"rt":2454,"responses":"{\"Q0\":3}","trial_type":"survey-likert","trial_index":19,"time_elapsed":187884,"internal_node_id":"0.0-3.2-4.2-0.4","responseType":"finish","participantID":"98hu412cgptsn4xv07v43te85saocyaz"},{"rt":2134,"responses":"{\"Q0\":0}","trial_type":"survey-likert","trial_index":20,"time_elapsed":190020,"internal_node_id":"0.0-3.2-4.2-0.5","responseType":"finish","participantID":"98hu412cgptsn4xv07v43te85saocyaz"}],"__v":0}
{"_id":{"$oid":"5d48e6191f672b000453106b"},"data":{"responseType":"start","participantID":"0f8c6paoyt860rx0mfge9jlb232ybk0x"},"__v":0}
{"_id":{"$oid":"5d48e63c1f672b000453106c"},"data":[{"rt":1838,"responses":"{\"Q0\":\" I consent to participate\"}","trial_type":"survey-multi-choice","trial_index":0,"time_elapsed":1841,"internal_node_id":"0.0-0.0","responseType":"finish","participantID":"0f8c6paoyt860rx0mfge9jlb232ybk0x"},{"trial_type":"call-function","trial_index":1,"time_elapsed":1844,"internal_node_id":"0.0-1.0","responseType":"finish","participantID":"0f8c6paoyt860rx0mfge9jlb232ybk0x"},{"view_history":"[{\"page_index\":0,\"viewing_time\":1455},{\"page_index\":1,\"viewing_time\":1126}]","rt":2581,"trial_type":"instructions","trial_index":2,"time_elapsed":4425,"internal_node_id":"0.0-2.0","responseType":"finish","participantID":"0f8c6paoyt860rx0mfge9jlb232ybk0x"},{"rt":1015,"stimulus":"\u003cblockquote\u003e\n  \u003cp\u003eNow an anagram will be shown to you. \u003cbr\u003e\u003cbr\u003e Press 'v' to view the anagram.\u003c/p\u003e\n\u003c/blockquote\u003e","key_press":86,"trial_type":"html-keyboard-response","trial_index":3,"time_elapsed":5441,"internal_node_id":"0.0-3.0-0.0","responseType":"finish","participantID":"0f8c6paoyt860rx0mfge9jlb232ybk0x"},{"rt":null,"stimulus":"\u003cb\u003e\u003ccenter\u003e\u003ch2\u003e\u003cp\u003eTEH\u003c/p\u003e\u003c/h2\u003e\u003c/center\u003e\u003c/b\u003e","key_press":null,"trial_type":"html-keyboard-response","trial_index":4,"time_elapsed":5942,"internal_node_id":"0.0-3.0-1.0","responseType":"finish","participantID":"0f8c6paoyt860rx0mfge9jlb232ybk0x"},{"rt":2221.7449999880046,"response":"0.3","stimulus":"\u003cp\u003eHow long do you think it will take you to solve this anagram?\u003c/p\u003e","trial_type":"html-slider-response","trial_index":5,"time_elapsed":8165,"internal_node_id":"0.0-3.0-2.0","responseType":"finish","participantID":"0f8c6paoyt860rx0mfge9jlb232ybk0x"},{"rt":1634,"responses":"{\"Q0\":\"the\"}","trial_type":"survey-text","trial_index":6,"time_elapsed":9801,"internal_node_id":"0.0-3.0-3.0-0.0","responseType":"finish","participantID":"0f8c6paoyt860rx0mfge9jlb232ybk0x"},{"rt":1790,"responses":"{\"Q0\":6}","trial_type":"survey-likert","trial_index":7,"time_elapsed":11593,"internal_node_id":"0.0-3.0-4.0-0.0","responseType":"finish","participantID":"0f8c6paoyt860rx0mfge9jlb232ybk0x"},{"rt":3005,"responses":"{\"Q0\":0}","trial_type":"survey-likert","trial_index":8,"time_elapsed":14599,"internal_node_id":"0.0-3.0-4.0-0.1","responseType":"finish","participantID":"0f8c6paoyt860rx0mfge9jlb232ybk0x"},{"rt":928,"stimulus":"\u003cblockquote\u003e\n  \u003cp\u003eNow an anagram will be shown to you. \u003cbr\u003e\u003cbr\u003e Press 'v' to view the anagram.\u003c/p\u003e\n\u003c/blockquote\u003e","key_press":86,"trial_type":"html-keyboard-response","trial_index":9,"time_elapsed":15529,"internal_node_id":"0.0-3.1-0.1","responseType":"finish","participantID":"0f8c6paoyt860rx0mfge9jlb232ybk0x"},{"rt":null,"stimulus":"\u003cb\u003e\u003ccenter\u003e\u003ch2\u003e\u003cp\u003eVLVOO\u003c/p\u003e\u003c/h2\u003e\u003c/center\u003e\u003c/b\u003e","key_press":null,"trial_type":"html-keyboard-response","trial_index":10,"time_elapsed":16029,"internal_node_id":"0.0-3.1-1.1","responseType":"finish","participantID":"0f8c6paoyt860rx0mfge9jlb232ybk0x"},{"rt":1558.5250000003725,"response":"0","stimulus":"\u003cp\u003eHow long do you think it will take you to solve this anagram?\u003c/p\u003e","trial_type":"html-slider-response","trial_index":11,"time_elapsed":17589,"internal_node_id":"0.0-3.1-2.1","responseType":"finish","participantID":"0f8c6paoyt860rx0mfge9jlb232ybk0x"},{"rt":1559,"responses":"{\"Q0\":\"asdasd\"}","trial_type":"survey-text","trial_index":12,"time_elapsed":19148,"internal_node_id":"0.0-3.1-3.1-0.1","responseType":"finish","participantID":"0f8c6paoyt860rx0mfge9jlb232ybk0x"},{"rt":2209,"responses":"{\"Q0\":\"volvo\"}","trial_type":"survey-text","trial_index":13,"time_elapsed":22368,"internal_node_id":"0.0-3.1-3.2-0.2","responseType":"finish","participantID":"0f8c6paoyt860rx0mfge9jlb232ybk0x"},{"rt":2351,"responses":"{\"Q0\":6}","trial_type":"survey-likert","trial_index":14,"time_elapsed":24720,"internal_node_id":"0.0-3.1-4.1-0.2","responseType":"finish","participantID":"0f8c6paoyt860rx0mfge9jlb232ybk0x"},{"rt":1903,"responses":"{\"Q0\":0}","trial_type":"survey-likert","trial_index":15,"time_elapsed":26624,"internal_node_id":"0.0-3.1-4.1-0.3","responseType":"finish","participantID":"0f8c6paoyt860rx0mfge9jlb232ybk0x"},{"rt":759,"stimulus":"\u003cblockquote\u003e\n  \u003cp\u003eNow an anagram will be shown to you. \u003cbr\u003e\u003cbr\u003e Press 'v' to view the anagram.\u003c/p\u003e\n\u003c/blockquote\u003e","key_press":86,"trial_type":"html-keyboard-response","trial_index":16,"time_elapsed":27384,"internal_node_id":"0.0-3.2-0.2","responseType":"finish","participantID":"0f8c6paoyt860rx0mfge9jlb232ybk0x"},{"rt":null,"stimulus":"\u003cb\u003e\u003ccenter\u003e\u003ch2\u003e\u003cp\u003eOGANRCI\u003c/p\u003e\u003c/h2\u003e\u003c/center\u003e\u003c/b\u003e","key_press":null,"trial_type":"html-keyboard-response","trial_index":17,"time_elapsed":27885,"internal_node_id":"0.0-3.2-1.2","responseType":"finish","participantID":"0f8c6paoyt860rx0mfge9jlb232ybk0x"},{"rt":1264.9399999645539,"response":"0","stimulus":"\u003cp\u003eHow long do you think it will take you to solve this anagram?\u003c/p\u003e","trial_type":"html-slider-response","trial_index":18,"time_elapsed":29150,"internal_node_id":"0.0-3.2-2.2","responseType":"finish","participantID":"0f8c6paoyt860rx0mfge9jlb232ybk0x"},{"rt":3673,"responses":"{\"Q0\":\"organic\"}","trial_type":"survey-text","trial_index":19,"time_elapsed":32824,"internal_node_id":"0.0-3.2-3.3-0.3","responseType":"finish","participantID":"0f8c6paoyt860rx0mfge9jlb232ybk0x"},{"rt":3071,"responses":"{\"Q0\":6}","trial_type":"survey-likert","trial_index":20,"time_elapsed":35896,"internal_node_id":"0.0-3.2-4.2-0.4","responseType":"finish","participantID":"0f8c6paoyt860rx0mfge9jlb232ybk0x"},{"rt":1311,"responses":"{\"Q0\":0}","trial_type":"survey-likert","trial_index":21,"time_elapsed":37208,"internal_node_id":"0.0-3.2-4.2-0.5","responseType":"finish","participantID":"0f8c6paoyt860rx0mfge9jlb232ybk0x"}],"__v":0}
{"_id":{"$oid":"5d48e6431f672b000453106d"},"data":[{"rt":9311,"responses":"{\"Q0\":\" I consent to participate\"}","trial_type":"survey-multi-choice","trial_index":0,"time_elapsed":9315,"internal_node_id":"0.0-0.0","responseType":"finish","participantID":"rvrygpso54mf9rjvbtfyz52rcuhevgax"},{"trial_type":"call-function","trial_index":1,"time_elapsed":9321,"internal_node_id":"0.0-1.0","responseType":"finish","participantID":"rvrygpso54mf9rjvbtfyz52rcuhevgax"},{"view_history":"[{\"page_index\":0,\"viewing_time\":19704},{\"page_index\":1,\"viewing_time\":21879}]","rt":41584,"trial_type":"instructions","trial_index":2,"time_elapsed":50906,"internal_node_id":"0.0-2.0","responseType":"finish","participantID":"rvrygpso54mf9rjvbtfyz52rcuhevgax"},{"rt":5511,"stimulus":"\u003cblockquote\u003e\n  \u003cp\u003eNow an anagram will be shown to you. \u003cbr\u003e\u003cbr\u003e Press 'v' to view the anagram.\u003c/p\u003e\n\u003c/blockquote\u003e","key_press":86,"trial_type":"html-keyboard-response","trial_index":3,"time_elapsed":56418,"internal_node_id":"0.0-3.0-0.0","responseType":"finish","participantID":"rvrygpso54mf9rjvbtfyz52rcuhevgax"},{"rt":null,"stimulus":"\u003cb\u003e\u003ccenter\u003e\u003ch2\u003e\u003cp\u003eTEH\u003c/p\u003e\u003c/h2\u003e\u003c/center\u003e\u003c/b\u003e","key_press":null,"trial_type":"html-keyboard-response","trial_index":4,"time_elapsed":56926,"internal_node_id":"0.0-3.0-1.0","responseType":"finish","participantID":"rvrygpso54mf9rjvbtfyz52rcuhevgax"},{"rt":8033.835000009276,"response":"0.2","stimulus":"\u003cp\u003eHow long do you think it will take you to solve this anagram?\u003c/p\u003e","trial_type":"html-slider-response","trial_index":5,"time_elapsed":64962,"internal_node_id":"0.0-3.0-2.0","responseType":"finish","participantID":"rvrygpso54mf9rjvbtfyz52rcuhevgax"},{"rt":3951,"responses":"{\"Q0\":\"the\"}","trial_type":"survey-text","trial_index":6,"time_elapsed":68914,"internal_node_id":"0.0-3.0-3.0-0.0","responseType":"finish","participantID":"rvrygpso54mf9rjvbtfyz52rcuhevgax"},{"rt":6470,"responses":"{\"Q0\":4}","trial_type":"survey-likert","trial_index":7,"time_elapsed":75386,"internal_node_id":"0.0-3.0-4.0-0.0","responseType":"finish","participantID":"rvrygpso54mf9rjvbtfyz52rcuhevgax"},{"rt":10315,"responses":"{\"Q0\":1}","trial_type":"survey-likert","trial_index":8,"time_elapsed":85706,"internal_node_id":"0.0-3.0-4.0-0.1","responseType":"finish","participantID":"rvrygpso54mf9rjvbtfyz52rcuhevgax"},{"rt":8677,"stimulus":"\u003cblockquote\u003e\n  \u003cp\u003eNow an anagram will be shown to you. \u003cbr\u003e\u003cbr\u003e Press 'v' to view the anagram.\u003c/p\u003e\n\u003c/blockquote\u003e","key_press":86,"trial_type":"html-keyboard-response","trial_index":9,"time_elapsed":94386,"internal_node_id":"0.0-3.1-0.1","responseType":"finish","participantID":"rvrygpso54mf9rjvbtfyz52rcuhevgax"},{"rt":null,"stimulus":"\u003cb\u003e\u003ccenter\u003e\u003ch2\u003e\u003cp\u003eVLVOO\u003c/p\u003e\u003c/h2\u003e\u003c/center\u003e\u003c/b\u003e","key_press":null,"trial_type":"html-keyboard-response","trial_index":10,"time_elapsed":94888,"internal_node_id":"0.0-3.1-1.1","responseType":"finish","participantID":"rvrygpso54mf9rjvbtfyz52rcuhevgax"},{"rt":6408.31500000786,"response":"1.4","stimulus":"\u003cp\u003eHow long do you think it will take you to solve this anagram?\u003c/p\u003e","trial_type":"html-slider-response","trial_index":11,"time_elapsed":101298,"internal_node_id":"0.0-3.1-2.1","responseType":"finish","participantID":"rvrygpso54mf9rjvbtfyz52rcuhevgax"},{"rt":50846,"responses":"{\"Q0\":\"NEXT\"}","trial_type":"survey-text","trial_index":12,"time_elapsed":152145,"internal_node_id":"0.0-3.1-3.1-0.1","responseType":"finish","participantID":"rvrygpso54mf9rjvbtfyz52rcuhevgax"},{"rt":2871,"responses":"{\"Q0\":2}","trial_type":"survey-likert","trial_index":13,"time_elapsed":155017,"internal_node_id":"0.0-3.1-4.1-0.2","responseType":"finish","participantID":"rvrygpso54mf9rjvbtfyz52rcuhevgax"},{"rt":4923,"responses":"{\"Q0\":0}","trial_type":"survey-likert","trial_index":14,"time_elapsed":159946,"internal_node_id":"0.0-3.1-4.1-0.3","responseType":"finish","participantID":"rvrygpso54mf9rjvbtfyz52rcuhevgax"},{"rt":10469,"stimulus":"\u003cblockquote\u003e\n  \u003cp\u003eNow an anagram will be shown to you. \u003cbr\u003e\u003cbr\u003e Press 'v' to view the anagram.\u003c/p\u003e\n\u003c/blockquote\u003e","key_press":86,"trial_type":"html-keyboard-response","trial_index":15,"time_elapsed":170417,"internal_node_id":"0.0-3.2-0.2","responseType":"finish","participantID":"rvrygpso54mf9rjvbtfyz52rcuhevgax"},{"rt":null,"stimulus":"\u003cb\u003e\u003ccenter\u003e\u003ch2\u003e\u003cp\u003eOGANRCI\u003c/p\u003e\u003c/h2\u003e\u003c/center\u003e\u003c/b\u003e","key_press":null,"trial_type":"html-keyboard-response","trial_index":16,"time_elapsed":170920,"internal_node_id":"0.0-3.2-1.2","responseType":"finish","participantID":"rvrygpso54mf9rjvbtfyz52rcuhevgax"},{"rt":3968.979999946896,"response":"1.2","stimulus":"\u003cp\u003eHow long do you think it will take you to solve this anagram?\u003c/p\u003e","trial_type":"html-slider-response","trial_index":17,"time_elapsed":174890,"internal_node_id":"0.0-3.2-2.2","responseType":"finish","participantID":"rvrygpso54mf9rjvbtfyz52rcuhevgax"},{"rt":8278,"responses":"{\"Q0\":\"Organic\"}","trial_type":"survey-text","trial_index":18,"time_elapsed":183169,"internal_node_id":"0.0-3.2-3.2-0.2","responseType":"finish","participantID":"rvrygpso54mf9rjvbtfyz52rcuhevgax"},{"rt":2664,"responses":"{\"Q0\":3}","trial_type":"survey-likert","trial_index":19,"time_elapsed":185835,"internal_node_id":"0.0-3.2-4.2-0.4","responseType":"finish","participantID":"rvrygpso54mf9rjvbtfyz52rcuhevgax"},{"rt":4284,"responses":"{\"Q0\":1}","trial_type":"survey-likert","trial_index":20,"time_elapsed":190122,"internal_node_id":"0.0-3.2-4.2-0.5","responseType":"finish","participantID":"rvrygpso54mf9rjvbtfyz52rcuhevgax"}],"__v":0}
{"_id":{"$oid":"5d48e7b01f672b000453106e"},"data":{"responseType":"start","participantID":"mdcxwfpawoawdb4olowv5zu94rubtp9d"},"__v":0}
{"_id":{"$oid":"5d48e7f41f672b000453106f"},"data":[{"rt":5683,"responses":"{\"Q0\":\" I consent to participate\"}","trial_type":"survey-multi-choice","trial_index":0,"time_elapsed":5687,"internal_node_id":"0.0-0.0","responseType":"finish","participantID":"mdcxwfpawoawdb4olowv5zu94rubtp9d"},{"trial_type":"call-function","trial_index":1,"time_elapsed":5690,"internal_node_id":"0.0-1.0","responseType":"finish","participantID":"mdcxwfpawoawdb4olowv5zu94rubtp9d"},{"view_history":"[{\"page_index\":0,\"viewing_time\":10702},{\"page_index\":1,\"viewing_time\":5482}]","rt":16185,"trial_type":"instructions","trial_index":2,"time_elapsed":21875,"internal_node_id":"0.0-2.0","responseType":"finish","participantID":"mdcxwfpawoawdb4olowv5zu94rubtp9d"},{"rt":3270,"stimulus":"\u003cblockquote\u003e\n  \u003cp\u003eNow an anagram will be shown to you. \u003cbr\u003e\u003cbr\u003e Press 'v' to view the anagram.\u003c/p\u003e\n\u003c/blockquote\u003e","key_press":86,"trial_type":"html-keyboard-response","trial_index":3,"time_elapsed":25146,"internal_node_id":"0.0-3.0-0.0","responseType":"finish","participantID":"mdcxwfpawoawdb4olowv5zu94rubtp9d"},{"rt":null,"stimulus":"\u003cb\u003e\u003ccenter\u003e\u003ch2\u003e\u003cp\u003eTEH\u003c/p\u003e\u003c/h2\u003e\u003c/center\u003e\u003c/b\u003e","key_press":null,"trial_type":"html-keyboard-response","trial_index":4,"time_elapsed":25650,"internal_node_id":"0.0-3.0-1.0","responseType":"finish","participantID":"mdcxwfpawoawdb4olowv5zu94rubtp9d"},{"rt":4252.050000010058,"response":"0","stimulus":"\u003cp\u003eHow long do you think it will take you to solve this anagram?\u003c/p\u003e","trial_type":"html-slider-response","trial_index":5,"time_elapsed":29904,"internal_node_id":"0.0-3.0-2.0","responseType":"finish","participantID":"mdcxwfpawoawdb4olowv5zu94rubtp9d"},{"rt":3846,"responses":"{\"Q0\":\"the\"}","trial_type":"survey-text","trial_index":6,"time_elapsed":33751,"internal_node_id":"0.0-3.0-3.0-0.0","responseType":"finish","participantID":"mdcxwfpawoawdb4olowv5zu94rubtp9d"},{"rt":4315,"responses":"{\"Q0\":6}","trial_type":"survey-likert","trial_index":7,"time_elapsed":38068,"internal_node_id":"0.0-3.0-4.0-0.0","responseType":"finish","participantID":"mdcxwfpawoawdb4olowv5zu94rubtp9d"},{"rt":5982,"responses":"{\"Q0\":1}","trial_type":"survey-likert","trial_index":8,"time_elapsed":44051,"internal_node_id":"0.0-3.0-4.0-0.1","responseType":"finish","participantID":"mdcxwfpawoawdb4olowv5zu94rubtp9d"},{"rt":1563,"stimulus":"\u003cblockquote\u003e\n  \u003cp\u003eNow an anagram will be shown to you. \u003cbr\u003e\u003cbr\u003e Press 'v' to view the anagram.\u003c/p\u003e\n\u003c/blockquote\u003e","key_press":86,"trial_type":"html-keyboard-response","trial_index":9,"time_elapsed":45615,"internal_node_id":"0.0-3.1-0.1","responseType":"finish","participantID":"mdcxwfpawoawdb4olowv5zu94rubtp9d"},{"rt":null,"stimulus":"\u003cb\u003e\u003ccenter\u003e\u003ch2\u003e\u003cp\u003eVLVOO\u003c/p\u003e\u003c/h2\u003e\u003c/center\u003e\u003c/b\u003e","key_press":null,"trial_type":"html-keyboard-response","trial_index":10,"time_elapsed":46117,"internal_node_id":"0.0-3.1-1.1","responseType":"finish","participantID":"mdcxwfpawoawdb4olowv5zu94rubtp9d"},{"rt":4896.199999988312,"response":"0","stimulus":"\u003cp\u003eHow long do you think it will take you to solve this anagram?\u003c/p\u003e","trial_type":"html-slider-response","trial_index":11,"time_elapsed":51015,"internal_node_id":"0.0-3.1-2.1","responseType":"finish","participantID":"mdcxwfpawoawdb4olowv5zu94rubtp9d"},{"rt":4068,"responses":"{\"Q0\":\"volvo\"}","trial_type":"survey-text","trial_index":12,"time_elapsed":55083,"internal_node_id":"0.0-3.1-3.1-0.1","responseType":"finish","participantID":"mdcxwfpawoawdb4olowv5zu94rubtp9d"},{"rt":3405,"responses":"{\"Q0\":4}","trial_type":"survey-likert","trial_index":13,"time_elapsed":58489,"internal_node_id":"0.0-3.1-4.1-0.2","responseType":"finish","participantID":"mdcxwfpawoawdb4olowv5zu94rubtp9d"},{"rt":1791,"responses":"{\"Q0\":2}","trial_type":"survey-likert","trial_index":14,"time_elapsed":60281,"internal_node_id":"0.0-3.1-4.1-0.3","responseType":"finish","participantID":"mdcxwfpawoawdb4olowv5zu94rubtp9d"},{"rt":1165,"stimulus":"\u003cblockquote\u003e\n  \u003cp\u003eNow an anagram will be shown to you. \u003cbr\u003e\u003cbr\u003e Press 'v' to view the anagram.\u003c/p\u003e\n\u003c/blockquote\u003e","key_press":86,"trial_type":"html-keyboard-response","trial_index":15,"time_elapsed":61448,"internal_node_id":"0.0-3.2-0.2","responseType":"finish","participantID":"mdcxwfpawoawdb4olowv5zu94rubtp9d"},{"rt":null,"stimulus":"\u003cb\u003e\u003ccenter\u003e\u003ch2\u003e\u003cp\u003eOGANRCI\u003c/p\u003e\u003c/h2\u003e\u003c/center\u003e\u003c/b\u003e","key_press":null,"trial_type":"html-keyboard-response","trial_index":16,"time_elapsed":61950,"internal_node_id":"0.0-3.2-1.2","responseType":"finish","participantID":"mdcxwfpawoawdb4olowv5zu94rubtp9d"},{"rt":2833.165000018198,"response":"0","stimulus":"\u003cp\u003eHow long do you think it will take you to solve this anagram?\u003c/p\u003e","trial_type":"html-slider-response","trial_index":17,"time_elapsed":64784,"internal_node_id":"0.0-3.2-2.2","responseType":"finish","participantID":"mdcxwfpawoawdb4olowv5zu94rubtp9d"},{"rt":5508,"responses":"{\"Q0\":\"organic\"}","trial_type":"survey-text","trial_index":18,"time_elapsed":70293,"internal_node_id":"0.0-3.2-3.2-0.2","responseType":"finish","participantID":"mdcxwfpawoawdb4olowv5zu94rubtp9d"},{"rt":2081,"responses":"{\"Q0\":4}","trial_type":"survey-likert","trial_index":19,"time_elapsed":72375,"internal_node_id":"0.0-3.2-4.2-0.4","responseType":"finish","participantID":"mdcxwfpawoawdb4olowv5zu94rubtp9d"},{"rt":1597,"responses":"{\"Q0\":2}","trial_type":"survey-likert","trial_index":20,"time_elapsed":73973,"internal_node_id":"0.0-3.2-4.2-0.5","responseType":"finish","participantID":"mdcxwfpawoawdb4olowv5zu94rubtp9d"}],"__v":0}
{"_id":{"$oid":"5d48e8041f672b0004531070"},"data":{"responseType":"start","participantID":"l2b5j30c8oqacaa1qwh1psu0tagav302"},"__v":0}
{"_id":{"$oid":"5d48e88d1f672b0004531071"},"data":[{"rt":7210,"responses":"{\"Q0\":\" I consent to participate\"}","trial_type":"survey-multi-choice","trial_index":0,"time_elapsed":7214,"internal_node_id":"0.0-0.0","responseType":"finish","participantID":"l2b5j30c8oqacaa1qwh1psu0tagav302"},{"trial_type":"call-function","trial_index":1,"time_elapsed":7220,"internal_node_id":"0.0-1.0","responseType":"finish","participantID":"l2b5j30c8oqacaa1qwh1psu0tagav302"},{"view_history":"[{\"page_index\":0,\"viewing_time\":9468},{\"page_index\":1,\"viewing_time\":15398}]","rt":24867,"trial_type":"instructions","trial_index":2,"time_elapsed":32088,"internal_node_id":"0.0-2.0","responseType":"finish","participantID":"l2b5j30c8oqacaa1qwh1psu0tagav302"},{"rt":10324,"stimulus":"\u003cblockquote\u003e\n  \u003cp\u003eNow an anagram will be shown to you. \u003cbr\u003e\u003cbr\u003e Press 'v' to view the anagram.\u003c/p\u003e\n\u003c/blockquote\u003e","key_press":86,"trial_type":"html-keyboard-response","trial_index":3,"time_elapsed":42414,"internal_node_id":"0.0-3.0-0.0","responseType":"finish","participantID":"l2b5j30c8oqacaa1qwh1psu0tagav302"},{"rt":null,"stimulus":"\u003cb\u003e\u003ccenter\u003e\u003ch2\u003e\u003cp\u003eTEH\u003c/p\u003e\u003c/h2\u003e\u003c/center\u003e\u003c/b\u003e","key_press":null,"trial_type":"html-keyboard-response","trial_index":4,"time_elapsed":42934,"internal_node_id":"0.0-3.0-1.0","responseType":"finish","participantID":"l2b5j30c8oqacaa1qwh1psu0tagav302"},{"rt":6579,"response":"0","stimulus":"\u003cp\u003eHow long do you think it will take you to solve this anagram?\u003c/p\u003e","trial_type":"html-slider-response","trial_index":5,"time_elapsed":49514,"internal_node_id":"0.0-3.0-2.0","responseType":"finish","participantID":"l2b5j30c8oqacaa1qwh1psu0tagav302"},{"rt":6100,"responses":"{\"Q0\":\"THE\"}","trial_type":"survey-text","trial_index":6,"time_elapsed":55616,"internal_node_id":"0.0-3.0-3.0-0.0","responseType":"finish","participantID":"l2b5j30c8oqacaa1qwh1psu0tagav302"},{"rt":4792,"responses":"{\"Q0\":3}","trial_type":"survey-likert","trial_index":7,"time_elapsed":60411,"internal_node_id":"0.0-3.0-4.0-0.0","responseType":"finish","participantID":"l2b5j30c8oqacaa1qwh1psu0tagav302"},{"rt":10174,"responses":"{\"Q0\":0}","trial_type":"survey-likert","trial_index":8,"time_elapsed":70588,"internal_node_id":"0.0-3.0-4.0-0.1","responseType":"finish","participantID":"l2b5j30c8oqacaa1qwh1psu0tagav302"},{"rt":2760,"stimulus":"\u003cblockquote\u003e\n  \u003cp\u003eNow an anagram will be shown to you. \u003cbr\u003e\u003cbr\u003e Press 'v' to view the anagram.\u003c/p\u003e\n\u003c/blockquote\u003e","key_press":86,"trial_type":"html-keyboard-response","trial_index":9,"time_elapsed":73349,"internal_node_id":"0.0-3.1-0.1","responseType":"finish","participantID":"l2b5j30c8oqacaa1qwh1psu0tagav302"},{"rt":null,"stimulus":"\u003cb\u003e\u003ccenter\u003e\u003ch2\u003e\u003cp\u003eVLVOO\u003c/p\u003e\u003c/h2\u003e\u003c/center\u003e\u003c/b\u003e","key_press":null,"trial_type":"html-keyboard-response","trial_index":10,"time_elapsed":73871,"internal_node_id":"0.0-3.1-1.1","responseType":"finish","participantID":"l2b5j30c8oqacaa1qwh1psu0tagav302"},{"rt":5305,"response":"5.5","stimulus":"\u003cp\u003eHow long do you think it will take you to solve this anagram?\u003c/p\u003e","trial_type":"html-slider-response","trial_index":11,"time_elapsed":79177,"internal_node_id":"0.0-3.1-2.1","responseType":"finish","participantID":"l2b5j30c8oqacaa1qwh1psu0tagav302"},{"rt":31275,"responses":"{\"Q0\":\"NEXT\"}","trial_type":"survey-text","trial_index":12,"time_elapsed":110455,"internal_node_id":"0.0-3.1-3.1-0.1","responseType":"finish","participantID":"l2b5j30c8oqacaa1qwh1psu0tagav302"},{"rt":3029,"responses":"{\"Q0\":0}","trial_type":"survey-likert","trial_index":13,"time_elapsed":113486,"internal_node_id":"0.0-3.1-4.1-0.2","responseType":"finish","participantID":"l2b5j30c8oqacaa1qwh1psu0tagav302"},{"rt":2984,"responses":"{\"Q0\":0}","trial_type":"survey-likert","trial_index":14,"time_elapsed":116472,"internal_node_id":"0.0-3.1-4.1-0.3","responseType":"finish","participantID":"l2b5j30c8oqacaa1qwh1psu0tagav302"},{"rt":2412,"stimulus":"\u003cblockquote\u003e\n  \u003cp\u003eNow an anagram will be shown to you. \u003cbr\u003e\u003cbr\u003e Press 'v' to view the anagram.\u003c/p\u003e\n\u003c/blockquote\u003e","key_press":86,"trial_type":"html-keyboard-response","trial_index":15,"time_elapsed":118885,"internal_node_id":"0.0-3.2-0.2","responseType":"finish","participantID":"l2b5j30c8oqacaa1qwh1psu0tagav302"},{"rt":null,"stimulus":"\u003cb\u003e\u003ccenter\u003e\u003ch2\u003e\u003cp\u003eOGANRCI\u003c/p\u003e\u003c/h2\u003e\u003c/center\u003e\u003c/b\u003e","key_press":null,"trial_type":"html-keyboard-response","trial_index":16,"time_elapsed":119392,"internal_node_id":"0.0-3.2-1.2","responseType":"finish","participantID":"l2b5j30c8oqacaa1qwh1psu0tagav302"},{"rt":6040,"response":"3.4","stimulus":"\u003cp\u003eHow long do you think it will take you to solve this anagram?\u003c/p\u003e","trial_type":"html-slider-response","trial_index":17,"time_elapsed":125432,"internal_node_id":"0.0-3.2-2.2","responseType":"finish","participantID":"l2b5j30c8oqacaa1qwh1psu0tagav302"},{"rt":9550,"responses":"{\"Q0\":\"ORGANIC\"}","trial_type":"survey-text","trial_index":18,"time_elapsed":134985,"internal_node_id":"0.0-3.2-3.2-0.2","responseType":"finish","participantID":"l2b5j30c8oqacaa1qwh1psu0tagav302"},{"rt":3983,"responses":"{\"Q0\":3}","trial_type":"survey-likert","trial_index":19,"time_elapsed":138971,"internal_node_id":"0.0-3.2-4.2-0.4","responseType":"finish","participantID":"l2b5j30c8oqacaa1qwh1psu0tagav302"},{"rt":4459,"responses":"{\"Q0\":5}","trial_type":"survey-likert","trial_index":20,"time_elapsed":143432,"internal_node_id":"0.0-3.2-4.2-0.5","responseType":"finish","participantID":"l2b5j30c8oqacaa1qwh1psu0tagav302"}],"__v":0}
{"_id":{"$oid":"5d48e8ed1f672b0004531072"},"data":{"responseType":"start","participantID":"d0d2wyhby5mdfzg1nvqtlv5ecft3f6a1"},"__v":0}
{"_id":{"$oid":"5d48e9251f672b0004531073"},"data":{"responseType":"start","participantID":"07lglhvsjhu9uh2kp91z3jypm0eagbhy"},"__v":0}
{"_id":{"$oid":"5d48e9851f672b0004531074"},"data":[{"rt":5894,"responses":"{\"Q0\":\" I consent to participate\"}","trial_type":"survey-multi-choice","trial_index":0,"time_elapsed":6066,"internal_node_id":"0.0-0.0","responseType":"finish","participantID":"07lglhvsjhu9uh2kp91z3jypm0eagbhy"},{"trial_type":"call-function","trial_index":1,"time_elapsed":6089,"internal_node_id":"0.0-1.0","responseType":"finish","participantID":"07lglhvsjhu9uh2kp91z3jypm0eagbhy"},{"view_history":"[{\"page_index\":0,\"viewing_time\":3880},{\"page_index\":1,\"viewing_time\":27453}]","rt":31334,"trial_type":"instructions","trial_index":2,"time_elapsed":37428,"internal_node_id":"0.0-2.0","responseType":"finish","participantID":"07lglhvsjhu9uh2kp91z3jypm0eagbhy"},{"rt":2020,"stimulus":"\u003cblockquote\u003e\n  \u003cp\u003eNow an anagram will be shown to you. \u003cbr\u003e\u003cbr\u003e Press 'v' to view the anagram.\u003c/p\u003e\n\u003c/blockquote\u003e","key_press":86,"trial_type":"html-keyboard-response","trial_index":3,"time_elapsed":39456,"internal_node_id":"0.0-3.0-0.0","responseType":"finish","participantID":"07lglhvsjhu9uh2kp91z3jypm0eagbhy"},{"rt":null,"stimulus":"\u003cb\u003e\u003ccenter\u003e\u003ch2\u003e\u003cp\u003eTEH\u003c/p\u003e\u003c/h2\u003e\u003c/center\u003e\u003c/b\u003e","key_press":null,"trial_type":"html-keyboard-response","trial_index":4,"time_elapsed":39995,"internal_node_id":"0.0-3.0-1.0","responseType":"finish","participantID":"07lglhvsjhu9uh2kp91z3jypm0eagbhy"},{"rt":4590.05999999863,"response":"1.2","stimulus":"\u003cp\u003eHow long do you think it will take you to solve this anagram?\u003c/p\u003e","trial_type":"html-slider-response","trial_index":5,"time_elapsed":44595,"internal_node_id":"0.0-3.0-2.0","responseType":"finish","participantID":"07lglhvsjhu9uh2kp91z3jypm0eagbhy"},{"rt":5954,"responses":"{\"Q0\":\"the\"}","trial_type":"survey-text","trial_index":6,"time_elapsed":50558,"internal_node_id":"0.0-3.0-3.0-0.0","responseType":"finish","participantID":"07lglhvsjhu9uh2kp91z3jypm0eagbhy"},{"rt":3443,"responses":"{\"Q0\":4}","trial_type":"survey-likert","trial_index":7,"time_elapsed":54020,"internal_node_id":"0.0-3.0-4.0-0.0","responseType":"finish","participantID":"07lglhvsjhu9uh2kp91z3jypm0eagbhy"},{"rt":6535,"responses":"{\"Q0\":3}","trial_type":"survey-likert","trial_index":8,"time_elapsed":60568,"internal_node_id":"0.0-3.0-4.0-0.1","responseType":"finish","participantID":"07lglhvsjhu9uh2kp91z3jypm0eagbhy"},{"rt":2945,"stimulus":"\u003cblockquote\u003e\n  \u003cp\u003eNow an anagram will be shown to you. \u003cbr\u003e\u003cbr\u003e Press 'v' to view the anagram.\u003c/p\u003e\n\u003c/blockquote\u003e","key_press":86,"trial_type":"html-keyboard-response","trial_index":9,"time_elapsed":63526,"internal_node_id":"0.0-3.1-0.1","responseType":"finish","participantID":"07lglhvsjhu9uh2kp91z3jypm0eagbhy"},{"rt":null,"stimulus":"\u003cb\u003e\u003ccenter\u003e\u003ch2\u003e\u003cp\u003eVLVOO\u003c/p\u003e\u003c/h2\u003e\u003c/center\u003e\u003c/b\u003e","key_press":null,"trial_type":"html-keyboard-response","trial_index":10,"time_elapsed":64033,"internal_node_id":"0.0-3.1-1.1","responseType":"finish","participantID":"07lglhvsjhu9uh2kp91z3jypm0eagbhy"},{"rt":3033.2049999997253,"response":"4.6","stimulus":"\u003cp\u003eHow long do you think it will take you to solve this anagram?\u003c/p\u003e","trial_type":"html-slider-response","trial_index":11,"time_elapsed":67070,"internal_node_id":"0.0-3.1-2.1","responseType":"finish","participantID":"07lglhvsjhu9uh2kp91z3jypm0eagbhy"},{"rt":7995,"responses":"{\"Q0\":\"\"}","trial_type":"survey-text","trial_index":12,"time_elapsed":75074,"internal_node_id":"0.0-3.1-3.1-0.1","responseType":"finish","participantID":"07lglhvsjhu9uh2kp91z3jypm0eagbhy"},{"rt":4904,"responses":"{\"Q0\":\"NEXT\"}","trial_type":"survey-text","trial_index":13,"time_elapsed":81530,"internal_node_id":"0.0-3.1-3.2-0.2","responseType":"finish","participantID":"07lglhvsjhu9uh2kp91z3jypm0eagbhy"},{"rt":2402,"responses":"{\"Q0\":1}","trial_type":"survey-likert","trial_index":14,"time_elapsed":83938,"internal_node_id":"0.0-3.1-4.1-0.2","responseType":"finish","participantID":"07lglhvsjhu9uh2kp91z3jypm0eagbhy"},{"rt":2895,"responses":"{\"Q0\":1}","trial_type":"survey-likert","trial_index":15,"time_elapsed":86846,"internal_node_id":"0.0-3.1-4.1-0.3","responseType":"finish","participantID":"07lglhvsjhu9uh2kp91z3jypm0eagbhy"},{"rt":1196,"stimulus":"\u003cblockquote\u003e\n  \u003cp\u003eNow an anagram will be shown to you. \u003cbr\u003e\u003cbr\u003e Press 'v' to view the anagram.\u003c/p\u003e\n\u003c/blockquote\u003e","key_press":86,"trial_type":"html-keyboard-response","trial_index":16,"time_elapsed":88054,"internal_node_id":"0.0-3.2-0.2","responseType":"finish","participantID":"07lglhvsjhu9uh2kp91z3jypm0eagbhy"},{"rt":null,"stimulus":"\u003cb\u003e\u003ccenter\u003e\u003ch2\u003e\u003cp\u003eOGANRCI\u003c/p\u003e\u003c/h2\u003e\u003c/center\u003e\u003c/b\u003e","key_press":null,"trial_type":"html-keyboard-response","trial_index":17,"time_elapsed":88561,"internal_node_id":"0.0-3.2-1.2","responseType":"finish","participantID":"07lglhvsjhu9uh2kp91z3jypm0eagbhy"},{"rt":2405.829999999696,"response":"6","stimulus":"\u003cp\u003eHow long do you think it will take you to solve this anagram?\u003c/p\u003e","trial_type":"html-slider-response","trial_index":18,"time_elapsed":90971,"internal_node_id":"0.0-3.2-2.2","responseType":"finish","participantID":"07lglhvsjhu9uh2kp91z3jypm0eagbhy"},{"rt":6267,"responses":"{\"Q0\":\"NEXT\"}","trial_type":"survey-text","trial_index":19,"time_elapsed":97242,"internal_node_id":"0.0-3.2-3.3-0.3","responseType":"finish","participantID":"07lglhvsjhu9uh2kp91z3jypm0eagbhy"},{"rt":2662,"responses":"{\"Q0\":0}","trial_type":"survey-likert","trial_index":20,"time_elapsed":99910,"internal_node_id":"0.0-3.2-4.2-0.4","responseType":"finish","participantID":"07lglhvsjhu9uh2kp91z3jypm0eagbhy"},{"rt":1625,"responses":"{\"Q0\":1}","trial_type":"survey-likert","trial_index":21,"time_elapsed":101548,"internal_node_id":"0.0-3.2-4.2-0.5","responseType":"finish","participantID":"07lglhvsjhu9uh2kp91z3jypm0eagbhy"}],"__v":0}
{"_id":{"$oid":"5d48ea8a1f672b0004531075"},"data":{"responseType":"start","participantID":"jt5yzn4yf28x81pcjwmay3ef5obq8t9j"},"__v":0}
{"_id":{"$oid":"5d48eafe1f672b0004531076"},"data":[{"rt":40520,"responses":"{\"Q0\":\" I consent to participate\"}","trial_type":"survey-multi-choice","trial_index":0,"time_elapsed":40524,"internal_node_id":"0.0-0.0","responseType":"finish","participantID":"jt5yzn4yf28x81pcjwmay3ef5obq8t9j"},{"trial_type":"call-function","trial_index":1,"time_elapsed":40543,"internal_node_id":"0.0-1.0","responseType":"finish","participantID":"jt5yzn4yf28x81pcjwmay3ef5obq8t9j"},{"view_history":"[{\"page_index\":0,\"viewing_time\":19114},{\"page_index\":1,\"viewing_time\":11424}]","rt":30539,"trial_type":"instructions","trial_index":2,"time_elapsed":71082,"internal_node_id":"0.0-2.0","responseType":"finish","participantID":"jt5yzn4yf28x81pcjwmay3ef5obq8t9j"},{"rt":3147,"stimulus":"\u003cblockquote\u003e\n  \u003cp\u003eNow an anagram will be shown to you. \u003cbr\u003e\u003cbr\u003e Press 'v' to view the anagram.\u003c/p\u003e\n\u003c/blockquote\u003e","key_press":86,"trial_type":"html-keyboard-response","trial_index":3,"time_elapsed":74231,"internal_node_id":"0.0-3.0-0.0","responseType":"finish","participantID":"jt5yzn4yf28x81pcjwmay3ef5obq8t9j"},{"rt":null,"stimulus":"\u003cb\u003e\u003ccenter\u003e\u003ch2\u003e\u003cp\u003eTEH\u003c/p\u003e\u003c/h2\u003e\u003c/center\u003e\u003c/b\u003e","key_press":null,"trial_type":"html-keyboard-response","trial_index":4,"time_elapsed":74746,"internal_node_id":"0.0-3.0-1.0","responseType":"finish","participantID":"jt5yzn4yf28x81pcjwmay3ef5obq8t9j"},{"rt":2715.4399999417365,"response":"0.3","stimulus":"\u003cp\u003eHow long do you think it will take you to solve this anagram?\u003c/p\u003e","trial_type":"html-slider-response","trial_index":5,"time_elapsed":77467,"internal_node_id":"0.0-3.0-2.0","responseType":"finish","participantID":"jt5yzn4yf28x81pcjwmay3ef5obq8t9j"},{"rt":4889,"responses":"{\"Q0\":\"the\"}","trial_type":"survey-text","trial_index":6,"time_elapsed":82361,"internal_node_id":"0.0-3.0-3.0-0.0","responseType":"finish","participantID":"jt5yzn4yf28x81pcjwmay3ef5obq8t9j"},{"rt":3191,"responses":"{\"Q0\":6}","trial_type":"survey-likert","trial_index":7,"time_elapsed":85558,"internal_node_id":"0.0-3.0-4.0-0.0","responseType":"finish","participantID":"jt5yzn4yf28x81pcjwmay3ef5obq8t9j"},{"rt":6463,"responses":"{\"Q0\":0}","trial_type":"survey-likert","trial_index":8,"time_elapsed":92050,"internal_node_id":"0.0-3.0-4.0-0.1","responseType":"finish","participantID":"jt5yzn4yf28x81pcjwmay3ef5obq8t9j"},{"rt":4419,"stimulus":"\u003cblockquote\u003e\n  \u003cp\u003eNow an anagram will be shown to you. \u003cbr\u003e\u003cbr\u003e Press 'v' to view the anagram.\u003c/p\u003e\n\u003c/blockquote\u003e","key_press":86,"trial_type":"html-keyboard-response","trial_index":9,"time_elapsed":96488,"internal_node_id":"0.0-3.1-0.1","responseType":"finish","participantID":"jt5yzn4yf28x81pcjwmay3ef5obq8t9j"},{"rt":null,"stimulus":"\u003cb\u003e\u003ccenter\u003e\u003ch2\u003e\u003cp\u003eVLVOO\u003c/p\u003e\u003c/h2\u003e\u003c/center\u003e\u003c/b\u003e","key_press":null,"trial_type":"html-keyboard-response","trial_index":10,"time_elapsed":96995,"internal_node_id":"0.0-3.1-1.1","responseType":"finish","participantID":"jt5yzn4yf28x81pcjwmay3ef5obq8t9j"},{"rt":8013.694999972358,"response":"3.4","stimulus":"\u003cp\u003eHow long do you think it will take you to solve this anagram?\u003c/p\u003e","trial_type":"html-slider-response","trial_index":11,"time_elapsed":105012,"internal_node_id":"0.0-3.1-2.1","responseType":"finish","participantID":"jt5yzn4yf28x81pcjwmay3ef5obq8t9j"},{"rt":9725,"responses":"{\"Q0\":\"volvo\"}","trial_type":"survey-text","trial_index":12,"time_elapsed":114740,"internal_node_id":"0.0-3.1-3.1-0.1","responseType":"finish","participantID":"jt5yzn4yf28x81pcjwmay3ef5obq8t9j"},{"rt":5690,"responses":"{\"Q0\":4}","trial_type":"survey-likert","trial_index":13,"time_elapsed":120433,"internal_node_id":"0.0-3.1-4.1-0.2","responseType":"finish","participantID":"jt5yzn4yf28x81pcjwmay3ef5obq8t9j"},{"rt":5506,"responses":"{\"Q0\":3}","trial_type":"survey-likert","trial_index":14,"time_elapsed":125959,"internal_node_id":"0.0-3.1-4.1-0.3","responseType":"finish","participantID":"jt5yzn4yf28x81pcjwmay3ef5obq8t9j"},{"rt":12104,"stimulus":"\u003cblockquote\u003e\n  \u003cp\u003eNow an anagram will be shown to you. \u003cbr\u003e\u003cbr\u003e Press 'v' to view the anagram.\u003c/p\u003e\n\u003c/blockquote\u003e","key_press":86,"trial_type":"html-keyboard-response","trial_index":15,"time_elapsed":138094,"internal_node_id":"0.0-3.2-0.2","responseType":"finish","participantID":"jt5yzn4yf28x81pcjwmay3ef5obq8t9j"},{"rt":null,"stimulus":"\u003cb\u003e\u003ccenter\u003e\u003ch2\u003e\u003cp\u003eOGANRCI\u003c/p\u003e\u003c/h2\u003e\u003c/center\u003e\u003c/b\u003e","key_press":null,"trial_type":"html-keyboard-response","trial_index":16,"time_elapsed":138597,"internal_node_id":"0.0-3.2-1.2","responseType":"finish","participantID":"jt5yzn4yf28x81pcjwmay3ef5obq8t9j"},{"rt":5300.5600000033155,"response":"0","stimulus":"\u003cp\u003eHow long do you think it will take you to solve this anagram?\u003c/p\u003e","trial_type":"html-slider-response","trial_index":17,"time_elapsed":143899,"internal_node_id":"0.0-3.2-2.2","responseType":"finish","participantID":"jt5yzn4yf28x81pcjwmay3ef5obq8t9j"},{"rt":6080,"responses":"{\"Q0\":\"organic\"}","trial_type":"survey-text","trial_index":18,"time_elapsed":149981,"internal_node_id":"0.0-3.2-3.2-0.2","responseType":"finish","participantID":"jt5yzn4yf28x81pcjwmay3ef5obq8t9j"},{"rt":2866,"responses":"{\"Q0\":6}","trial_type":"survey-likert","trial_index":19,"time_elapsed":152849,"internal_node_id":"0.0-3.2-4.2-0.4","responseType":"finish","participantID":"jt5yzn4yf28x81pcjwmay3ef5obq8t9j"},{"rt":2948,"responses":"{\"Q0\":4}","trial_type":"survey-likert","trial_index":20,"time_elapsed":155853,"internal_node_id":"0.0-3.2-4.2-0.5","responseType":"finish","participantID":"jt5yzn4yf28x81pcjwmay3ef5obq8t9j"}],"__v":0}
{"_id":{"$oid":"5d48ecb41f672b0004531077"},"data":{"responseType":"start","participantID":"59eb9are2wp8vfjjomfwrgzm45s77vgu"},"__v":0}
{"_id":{"$oid":"5d48ed141f672b0004531078"},"data":[{"rt":7163,"responses":"{\"Q0\":\" I consent to participate\"}","trial_type":"survey-multi-choice","trial_index":0,"time_elapsed":7186,"internal_node_id":"0.0-0.0","responseType":"finish","participantID":"59eb9are2wp8vfjjomfwrgzm45s77vgu"},{"trial_type":"call-function","trial_index":1,"time_elapsed":7199,"internal_node_id":"0.0-1.0","responseType":"finish","participantID":"59eb9are2wp8vfjjomfwrgzm45s77vgu"},{"view_history":"[{\"page_index\":0,\"viewing_time\":13636},{\"page_index\":1,\"viewing_time\":11450}]","rt":25089,"trial_type":"instructions","trial_index":2,"time_elapsed":32289,"internal_node_id":"0.0-2.0","responseType":"finish","participantID":"59eb9are2wp8vfjjomfwrgzm45s77vgu"},{"rt":3335,"stimulus":"\u003cblockquote\u003e\n  \u003cp\u003eNow an anagram will be shown to you. \u003cbr\u003e\u003cbr\u003e Press 'v' to view the anagram.\u003c/p\u003e\n\u003c/blockquote\u003e","key_press":86,"trial_type":"html-keyboard-response","trial_index":3,"time_elapsed":35629,"internal_node_id":"0.0-3.0-0.0","responseType":"finish","participantID":"59eb9are2wp8vfjjomfwrgzm45s77vgu"},{"rt":null,"stimulus":"\u003cb\u003e\u003ccenter\u003e\u003ch2\u003e\u003cp\u003eTEH\u003c/p\u003e\u003c/h2\u003e\u003c/center\u003e\u003c/b\u003e","key_press":null,"trial_type":"html-keyboard-response","trial_index":4,"time_elapsed":36144,"internal_node_id":"0.0-3.0-1.0","responseType":"finish","participantID":"59eb9are2wp8vfjjomfwrgzm45s77vgu"},{"rt":4243.680000072345,"response":"0","stimulus":"\u003cp\u003eHow long do you think it will take you to solve this anagram?\u003c/p\u003e","trial_type":"html-slider-response","trial_index":5,"time_elapsed":40400,"internal_node_id":"0.0-3.0-2.0","responseType":"finish","participantID":"59eb9are2wp8vfjjomfwrgzm45s77vgu"},{"rt":2369,"responses":"{\"Q0\":\"The\"}","trial_type":"survey-text","trial_index":6,"time_elapsed":42774,"internal_node_id":"0.0-3.0-3.0-0.0","responseType":"finish","participantID":"59eb9are2wp8vfjjomfwrgzm45s77vgu"},{"rt":3719,"responses":"{\"Q0\":6}","trial_type":"survey-likert","trial_index":7,"time_elapsed":46500,"internal_node_id":"0.0-3.0-4.0-0.0","responseType":"finish","participantID":"59eb9are2wp8vfjjomfwrgzm45s77vgu"},{"rt":20325,"responses":"{\"Q0\":6}","trial_type":"survey-likert","trial_index":8,"time_elapsed":66830,"internal_node_id":"0.0-3.0-4.0-0.1","responseType":"finish","participantID":"59eb9are2wp8vfjjomfwrgzm45s77vgu"},{"rt":3632,"stimulus":"\u003cblockquote\u003e\n  \u003cp\u003eNow an anagram will be shown to you. \u003cbr\u003e\u003cbr\u003e Press 'v' to view the anagram.\u003c/p\u003e\n\u003c/blockquote\u003e","key_press":86,"trial_type":"html-keyboard-response","trial_index":9,"time_elapsed":70467,"internal_node_id":"0.0-3.1-0.1","responseType":"finish","participantID":"59eb9are2wp8vfjjomfwrgzm45s77vgu"},{"rt":null,"stimulus":"\u003cb\u003e\u003ccenter\u003e\u003ch2\u003e\u003cp\u003eVLVOO\u003c/p\u003e\u003c/h2\u003e\u003c/center\u003e\u003c/b\u003e","key_press":null,"trial_type":"html-keyboard-response","trial_index":10,"time_elapsed":70981,"internal_node_id":"0.0-3.1-1.1","responseType":"finish","participantID":"59eb9are2wp8vfjjomfwrgzm45s77vgu"},{"rt":5342.564999940805,"response":"0.1","stimulus":"\u003cp\u003eHow long do you think it will take you to solve this anagram?\u003c/p\u003e","trial_type":"html-slider-response","trial_index":11,"time_elapsed":76327,"internal_node_id":"0.0-3.1-2.1","responseType":"finish","participantID":"59eb9are2wp8vfjjomfwrgzm45s77vgu"},{"rt":4387,"responses":"{\"Q0\":\"Volvo\"}","trial_type":"survey-text","trial_index":12,"time_elapsed":80729,"internal_node_id":"0.0-3.1-3.1-0.1","responseType":"finish","participantID":"59eb9are2wp8vfjjomfwrgzm45s77vgu"},{"rt":3143,"responses":"{\"Q0\":6}","trial_type":"survey-likert","trial_index":13,"time_elapsed":83876,"internal_node_id":"0.0-3.1-4.1-0.2","responseType":"finish","participantID":"59eb9are2wp8vfjjomfwrgzm45s77vgu"},{"rt":5379,"responses":"{\"Q0\":5}","trial_type":"survey-likert","trial_index":14,"time_elapsed":89259,"internal_node_id":"0.0-3.1-4.1-0.3","responseType":"finish","participantID":"59eb9are2wp8vfjjomfwrgzm45s77vgu"},{"rt":2129,"stimulus":"\u003cblockquote\u003e\n  \u003cp\u003eNow an anagram will be shown to you. \u003cbr\u003e\u003cbr\u003e Press 'v' to view the anagram.\u003c/p\u003e\n\u003c/blockquote\u003e","key_press":86,"trial_type":"html-keyboard-response","trial_index":15,"time_elapsed":91393,"internal_node_id":"0.0-3.2-0.2","responseType":"finish","participantID":"59eb9are2wp8vfjjomfwrgzm45s77vgu"},{"rt":null,"stimulus":"\u003cb\u003e\u003ccenter\u003e\u003ch2\u003e\u003cp\u003eOGANRCI\u003c/p\u003e\u003c/h2\u003e\u003c/center\u003e\u003c/b\u003e","key_press":null,"trial_type":"html-keyboard-response","trial_index":16,"time_elapsed":91895,"internal_node_id":"0.0-3.2-1.2","responseType":"finish","participantID":"59eb9are2wp8vfjjomfwrgzm45s77vgu"},{"rt":2752.61500000488,"response":"0.1","stimulus":"\u003cp\u003eHow long do you think it will take you to solve this anagram?\u003c/p\u003e","trial_type":"html-slider-response","trial_index":17,"time_elapsed":94651,"internal_node_id":"0.0-3.2-2.2","responseType":"finish","participantID":"59eb9are2wp8vfjjomfwrgzm45s77vgu"},{"rt":4350,"responses":"{\"Q0\":\"Organic\"}","trial_type":"survey-text","trial_index":18,"time_elapsed":99004,"internal_node_id":"0.0-3.2-3.2-0.2","responseType":"finish","participantID":"59eb9are2wp8vfjjomfwrgzm45s77vgu"},{"rt":1794,"responses":"{\"Q0\":6}","trial_type":"survey-likert","trial_index":19,"time_elapsed":100802,"internal_node_id":"0.0-3.2-4.2-0.4","responseType":"finish","participantID":"59eb9are2wp8vfjjomfwrgzm45s77vgu"},{"rt":2761,"responses":"{\"Q0\":6}","trial_type":"survey-likert","trial_index":20,"time_elapsed":103568,"internal_node_id":"0.0-3.2-4.2-0.5","responseType":"finish","participantID":"59eb9are2wp8vfjjomfwrgzm45s77vgu"}],"__v":0}
{"_id":{"$oid":"5d48ed861f672b0004531079"},"data":[{"rt":3610,"responses":"{\"Q0\":\" I consent to participate\"}","trial_type":"survey-multi-choice","trial_index":0,"time_elapsed":3614,"internal_node_id":"0.0-0.0","responseType":"finish","participantID":"d0d2wyhby5mdfzg1nvqtlv5ecft3f6a1"},{"trial_type":"call-function","trial_index":1,"time_elapsed":3618,"internal_node_id":"0.0-1.0","responseType":"finish","participantID":"d0d2wyhby5mdfzg1nvqtlv5ecft3f6a1"},{"view_history":"[{\"page_index\":0,\"viewing_time\":918357},{\"page_index\":1,\"viewing_time\":1427}]","rt":919785,"trial_type":"instructions","trial_index":2,"time_elapsed":923404,"internal_node_id":"0.0-2.0","responseType":"finish","participantID":"d0d2wyhby5mdfzg1nvqtlv5ecft3f6a1"},{"rt":2747,"stimulus":"\u003cblockquote\u003e\n  \u003cp\u003eNow an anagram will be shown to you. \u003cbr\u003e\u003cbr\u003e Press 'v' to view the anagram.\u003c/p\u003e\n\u003c/blockquote\u003e","key_press":86,"trial_type":"html-keyboard-response","trial_index":3,"time_elapsed":926151,"internal_node_id":"0.0-3.0-0.0","responseType":"finish","participantID":"d0d2wyhby5mdfzg1nvqtlv5ecft3f6a1"},{"rt":null,"stimulus":"\u003cb\u003e\u003ccenter\u003e\u003ch2\u003e\u003cp\u003eTEH\u003c/p\u003e\u003c/h2\u003e\u003c/center\u003e\u003c/b\u003e","key_press":null,"trial_type":"html-keyboard-response","trial_index":4,"time_elapsed":926657,"internal_node_id":"0.0-3.0-1.0","responseType":"finish","participantID":"d0d2wyhby5mdfzg1nvqtlv5ecft3f6a1"},{"rt":3822.5899999961257,"response":"0","stimulus":"\u003cp\u003eHow long do you think it will take you to solve this anagram?\u003c/p\u003e","trial_type":"html-slider-response","trial_index":5,"time_elapsed":930481,"internal_node_id":"0.0-3.0-2.0","responseType":"finish","participantID":"d0d2wyhby5mdfzg1nvqtlv5ecft3f6a1"},{"rt":6144,"responses":"{\"Q0\":\"the\"}","trial_type":"survey-text","trial_index":6,"time_elapsed":936626,"internal_node_id":"0.0-3.0-3.0-0.0","responseType":"finish","participantID":"d0d2wyhby5mdfzg1nvqtlv5ecft3f6a1"},{"rt":5630,"responses":"{\"Q0\":6}","trial_type":"survey-likert","trial_index":7,"time_elapsed":942259,"internal_node_id":"0.0-3.0-4.0-0.0","responseType":"finish","participantID":"d0d2wyhby5mdfzg1nvqtlv5ecft3f6a1"},{"rt":7217,"responses":"{\"Q0\":4}","trial_type":"survey-likert","trial_index":8,"time_elapsed":949478,"internal_node_id":"0.0-3.0-4.0-0.1","responseType":"finish","participantID":"d0d2wyhby5mdfzg1nvqtlv5ecft3f6a1"},{"rt":1432,"stimulus":"\u003cblockquote\u003e\n  \u003cp\u003eNow an anagram will be shown to you. \u003cbr\u003e\u003cbr\u003e Press 'v' to view the anagram.\u003c/p\u003e\n\u003c/blockquote\u003e","key_press":86,"trial_type":"html-keyboard-response","trial_index":9,"time_elapsed":950911,"internal_node_id":"0.0-3.1-0.1","responseType":"finish","participantID":"d0d2wyhby5mdfzg1nvqtlv5ecft3f6a1"},{"rt":null,"stimulus":"\u003cb\u003e\u003ccenter\u003e\u003ch2\u003e\u003cp\u003eVLVOO\u003c/p\u003e\u003c/h2\u003e\u003c/center\u003e\u003c/b\u003e","key_press":null,"trial_type":"html-keyboard-response","trial_index":10,"time_elapsed":951413,"internal_node_id":"0.0-3.1-1.1","responseType":"finish","participantID":"d0d2wyhby5mdfzg1nvqtlv5ecft3f6a1"},{"rt":4097.459999844432,"response":"1.1","stimulus":"\u003cp\u003eHow long do you think it will take you to solve this anagram?\u003c/p\u003e","trial_type":"html-slider-response","trial_index":11,"time_elapsed":955512,"internal_node_id":"0.0-3.1-2.1","responseType":"finish","participantID":"d0d2wyhby5mdfzg1nvqtlv5ecft3f6a1"},{"rt":4840,"responses":"{\"Q0\":\"volvo\"}","trial_type":"survey-text","trial_index":12,"time_elapsed":960354,"internal_node_id":"0.0-3.1-3.1-0.1","responseType":"finish","participantID":"d0d2wyhby5mdfzg1nvqtlv5ecft3f6a1"},{"rt":4483,"responses":"{\"Q0\":5}","trial_type":"survey-likert","trial_index":13,"time_elapsed":964838,"internal_node_id":"0.0-3.1-4.1-0.2","responseType":"finish","participantID":"d0d2wyhby5mdfzg1nvqtlv5ecft3f6a1"},{"rt":196166,"responses":"{\"Q0\":4}","trial_type":"survey-likert","trial_index":14,"time_elapsed":1161006,"internal_node_id":"0.0-3.1-4.1-0.3","responseType":"finish","participantID":"d0d2wyhby5mdfzg1nvqtlv5ecft3f6a1"},{"rt":1663,"stimulus":"\u003cblockquote\u003e\n  \u003cp\u003eNow an anagram will be shown to you. \u003cbr\u003e\u003cbr\u003e Press 'v' to view the anagram.\u003c/p\u003e\n\u003c/blockquote\u003e","key_press":86,"trial_type":"html-keyboard-response","trial_index":15,"time_elapsed":1162670,"internal_node_id":"0.0-3.2-0.2","responseType":"finish","participantID":"d0d2wyhby5mdfzg1nvqtlv5ecft3f6a1"},{"rt":null,"stimulus":"\u003cb\u003e\u003ccenter\u003e\u003ch2\u003e\u003cp\u003eOGANRCI\u003c/p\u003e\u003c/h2\u003e\u003c/center\u003e\u003c/b\u003e","key_press":null,"trial_type":"html-keyboard-response","trial_index":16,"time_elapsed":1163172,"internal_node_id":"0.0-3.2-1.2","responseType":"finish","participantID":"d0d2wyhby5mdfzg1nvqtlv5ecft3f6a1"},{"rt":2730.14000011608,"response":"0","stimulus":"\u003cp\u003eHow long do you think it will take you to solve this anagram?\u003c/p\u003e","trial_type":"html-slider-response","trial_index":17,"time_elapsed":1165904,"internal_node_id":"0.0-3.2-2.2","responseType":"finish","participantID":"d0d2wyhby5mdfzg1nvqtlv5ecft3f6a1"},{"rt":4682,"responses":"{\"Q0\":\"organic\"}","trial_type":"survey-text","trial_index":18,"time_elapsed":1170586,"internal_node_id":"0.0-3.2-3.2-0.2","responseType":"finish","participantID":"d0d2wyhby5mdfzg1nvqtlv5ecft3f6a1"},{"rt":2835,"responses":"{\"Q0\":6}","trial_type":"survey-likert","trial_index":19,"time_elapsed":1173423,"internal_node_id":"0.0-3.2-4.2-0.4","responseType":"finish","participantID":"d0d2wyhby5mdfzg1nvqtlv5ecft3f6a1"},{"rt":7660,"responses":"{\"Q0\":4}","trial_type":"survey-likert","trial_index":20,"time_elapsed":1181085,"internal_node_id":"0.0-3.2-4.2-0.5","responseType":"finish","participantID":"d0d2wyhby5mdfzg1nvqtlv5ecft3f6a1"}],"__v":0}
{"_id":{"$oid":"5d48ee251f672b000453107a"},"data":{"responseType":"start","participantID":"k5zxxyzszv5e243yq2kyau4s1vrcer47"},"__v":0}
{"_id":{"$oid":"5d48ee7d1f672b000453107b"},"data":[{"rt":4391,"responses":"{\"Q0\":\" I consent to participate\"}","trial_type":"survey-multi-choice","trial_index":0,"time_elapsed":4399,"internal_node_id":"0.0-0.0","responseType":"finish","participantID":"k5zxxyzszv5e243yq2kyau4s1vrcer47"},{"trial_type":"call-function","trial_index":1,"time_elapsed":4403,"internal_node_id":"0.0-1.0","responseType":"finish","participantID":"k5zxxyzszv5e243yq2kyau4s1vrcer47"},{"view_history":"[{\"page_index\":0,\"viewing_time\":8042},{\"page_index\":1,\"viewing_time\":9536}]","rt":17579,"trial_type":"instructions","trial_index":2,"time_elapsed":21983,"internal_node_id":"0.0-2.0","responseType":"finish","participantID":"k5zxxyzszv5e243yq2kyau4s1vrcer47"},{"rt":3085,"stimulus":"\u003cblockquote\u003e\n  \u003cp\u003eNow an anagram will be shown to you. \u003cbr\u003e\u003cbr\u003e Press 'v' to view the anagram.\u003c/p\u003e\n\u003c/blockquote\u003e","key_press":86,"trial_type":"html-keyboard-response","trial_index":3,"time_elapsed":25069,"internal_node_id":"0.0-3.0-0.0","responseType":"finish","participantID":"k5zxxyzszv5e243yq2kyau4s1vrcer47"},{"rt":null,"stimulus":"\u003cb\u003e\u003ccenter\u003e\u003ch2\u003e\u003cp\u003eTEH\u003c/p\u003e\u003c/h2\u003e\u003c/center\u003e\u003c/b\u003e","key_press":null,"trial_type":"html-keyboard-response","trial_index":4,"time_elapsed":25575,"internal_node_id":"0.0-3.0-1.0","responseType":"finish","participantID":"k5zxxyzszv5e243yq2kyau4s1vrcer47"},{"rt":3817.1100000618026,"response":"0","stimulus":"\u003cp\u003eHow long do you think it will take you to solve this anagram?\u003c/p\u003e","trial_type":"html-slider-response","trial_index":5,"time_elapsed":29393,"internal_node_id":"0.0-3.0-2.0","responseType":"finish","participantID":"k5zxxyzszv5e243yq2kyau4s1vrcer47"},{"rt":3508,"responses":"{\"Q0\":\"the\"}","trial_type":"survey-text","trial_index":6,"time_elapsed":32903,"internal_node_id":"0.0-3.0-3.0-0.0","responseType":"finish","participantID":"k5zxxyzszv5e243yq2kyau4s1vrcer47"},{"rt":5109,"responses":"{\"Q0\":6}","trial_type":"survey-likert","trial_index":7,"time_elapsed":38014,"internal_node_id":"0.0-3.0-4.0-0.0","responseType":"finish","participantID":"k5zxxyzszv5e243yq2kyau4s1vrcer47"},{"rt":12805,"responses":"{\"Q0\":4}","trial_type":"survey-likert","trial_index":8,"time_elapsed":50821,"internal_node_id":"0.0-3.0-4.0-0.1","responseType":"finish","participantID":"k5zxxyzszv5e243yq2kyau4s1vrcer47"},{"rt":2202,"stimulus":"\u003cblockquote\u003e\n  \u003cp\u003eNow an anagram will be shown to you. \u003cbr\u003e\u003cbr\u003e Press 'v' to view the anagram.\u003c/p\u003e\n\u003c/blockquote\u003e","key_press":86,"trial_type":"html-keyboard-response","trial_index":9,"time_elapsed":53025,"internal_node_id":"0.0-3.1-0.1","responseType":"finish","participantID":"k5zxxyzszv5e243yq2kyau4s1vrcer47"},{"rt":null,"stimulus":"\u003cb\u003e\u003ccenter\u003e\u003ch2\u003e\u003cp\u003eVLVOO\u003c/p\u003e\u003c/h2\u003e\u003c/center\u003e\u003c/b\u003e","key_press":null,"trial_type":"html-keyboard-response","trial_index":10,"time_elapsed":53526,"internal_node_id":"0.0-3.1-1.1","responseType":"finish","participantID":"k5zxxyzszv5e243yq2kyau4s1vrcer47"},{"rt":6324.999999953434,"response":"2","stimulus":"\u003cp\u003eHow long do you think it will take you to solve this anagram?\u003c/p\u003e","trial_type":"html-slider-response","trial_index":11,"time_elapsed":59852,"internal_node_id":"0.0-3.1-2.1","responseType":"finish","participantID":"k5zxxyzszv5e243yq2kyau4s1vrcer47"},{"rt":8369,"responses":"{\"Q0\":\"volvo\"}","trial_type":"survey-text","trial_index":12,"time_elapsed":68223,"internal_node_id":"0.0-3.1-3.1-0.1","responseType":"finish","participantID":"k5zxxyzszv5e243yq2kyau4s1vrcer47"},{"rt":3291,"responses":"{\"Q0\":5}","trial_type":"survey-likert","trial_index":13,"time_elapsed":71515,"internal_node_id":"0.0-3.1-4.1-0.2","responseType":"finish","participantID":"k5zxxyzszv5e243yq2kyau4s1vrcer47"},{"rt":3791,"responses":"{\"Q0\":4}","trial_type":"survey-likert","trial_index":14,"time_elapsed":75307,"internal_node_id":"0.0-3.1-4.1-0.3","responseType":"finish","participantID":"k5zxxyzszv5e243yq2kyau4s1vrcer47"},{"rt":1639,"stimulus":"\u003cblockquote\u003e\n  \u003cp\u003eNow an anagram will be shown to you. \u003cbr\u003e\u003cbr\u003e Press 'v' to view the anagram.\u003c/p\u003e\n\u003c/blockquote\u003e","key_press":86,"trial_type":"html-keyboard-response","trial_index":15,"time_elapsed":76947,"internal_node_id":"0.0-3.2-0.2","responseType":"finish","participantID":"k5zxxyzszv5e243yq2kyau4s1vrcer47"},{"rt":null,"stimulus":"\u003cb\u003e\u003ccenter\u003e\u003ch2\u003e\u003cp\u003eOGANRCI\u003c/p\u003e\u003c/h2\u003e\u003c/center\u003e\u003c/b\u003e","key_press":null,"trial_type":"html-keyboard-response","trial_index":16,"time_elapsed":77449,"internal_node_id":"0.0-3.2-1.2","responseType":"finish","participantID":"k5zxxyzszv5e243yq2kyau4s1vrcer47"},{"rt":2894.554999889806,"response":"0","stimulus":"\u003cp\u003eHow long do you think it will take you to solve this anagram?\u003c/p\u003e","trial_type":"html-slider-response","trial_index":17,"time_elapsed":80344,"internal_node_id":"0.0-3.2-2.2","responseType":"finish","participantID":"k5zxxyzszv5e243yq2kyau4s1vrcer47"},{"rt":5889,"responses":"{\"Q0\":\"organic\"}","trial_type":"survey-text","trial_index":18,"time_elapsed":86235,"internal_node_id":"0.0-3.2-3.2-0.2","responseType":"finish","participantID":"k5zxxyzszv5e243yq2kyau4s1vrcer47"},{"rt":2623,"responses":"{\"Q0\":6}","trial_type":"survey-likert","trial_index":19,"time_elapsed":88859,"internal_node_id":"0.0-3.2-4.2-0.4","responseType":"finish","participantID":"k5zxxyzszv5e243yq2kyau4s1vrcer47"},{"rt":2762,"responses":"{\"Q0\":5}","trial_type":"survey-likert","trial_index":20,"time_elapsed":91622,"internal_node_id":"0.0-3.2-4.2-0.5","responseType":"finish","participantID":"k5zxxyzszv5e243yq2kyau4s1vrcer47"}],"__v":0}
{"_id":{"$oid":"5d48eec21f672b000453107c"},"data":{"responseType":"start","participantID":"p7ej75uamrktb8q47hu2wtd8rjsbl1xs"},"__v":0}
{"_id":{"$oid":"5d48ef311f672b000453107d"},"data":[{"rt":47576,"responses":"{\"Q0\":\" I consent to participate\"}","trial_type":"survey-multi-choice","trial_index":0,"time_elapsed":47581,"internal_node_id":"0.0-0.0","responseType":"finish","participantID":"p7ej75uamrktb8q47hu2wtd8rjsbl1xs"},{"trial_type":"call-function","trial_index":1,"time_elapsed":47591,"internal_node_id":"0.0-1.0","responseType":"finish","participantID":"p7ej75uamrktb8q47hu2wtd8rjsbl1xs"},{"view_history":"[{\"page_index\":0,\"viewing_time\":21160},{\"page_index\":1,\"viewing_time\":15726}]","rt":36887,"trial_type":"instructions","trial_index":2,"time_elapsed":84479,"internal_node_id":"0.0-2.0","responseType":"finish","participantID":"p7ej75uamrktb8q47hu2wtd8rjsbl1xs"},{"rt":1760,"stimulus":"\u003cblockquote\u003e\n  \u003cp\u003eNow an anagram will be shown to you. \u003cbr\u003e\u003cbr\u003e Press 'v' to view the anagram.\u003c/p\u003e\n\u003c/blockquote\u003e","key_press":86,"trial_type":"html-keyboard-response","trial_index":3,"time_elapsed":86240,"internal_node_id":"0.0-3.0-0.0","responseType":"finish","participantID":"p7ej75uamrktb8q47hu2wtd8rjsbl1xs"},{"rt":null,"stimulus":"\u003cb\u003e\u003ccenter\u003e\u003ch2\u003e\u003cp\u003eTEH\u003c/p\u003e\u003c/h2\u003e\u003c/center\u003e\u003c/b\u003e","key_press":null,"trial_type":"html-keyboard-response","trial_index":4,"time_elapsed":86747,"internal_node_id":"0.0-3.0-1.0","responseType":"finish","participantID":"p7ej75uamrktb8q47hu2wtd8rjsbl1xs"},{"rt":8282.785000046715,"response":"0","stimulus":"\u003cp\u003eHow long do you think it will take you to solve this anagram?\u003c/p\u003e","trial_type":"html-slider-response","trial_index":5,"time_elapsed":95031,"internal_node_id":"0.0-3.0-2.0","responseType":"finish","participantID":"p7ej75uamrktb8q47hu2wtd8rjsbl1xs"},{"rt":3895,"responses":"{\"Q0\":\"The\"}","trial_type":"survey-text","trial_index":6,"time_elapsed":98928,"internal_node_id":"0.0-3.0-3.0-0.0","responseType":"finish","participantID":"p7ej75uamrktb8q47hu2wtd8rjsbl1xs"},{"rt":8025,"responses":"{\"Q0\":3}","trial_type":"survey-likert","trial_index":7,"time_elapsed":106956,"internal_node_id":"0.0-3.0-4.0-0.0","responseType":"finish","participantID":"p7ej75uamrktb8q47hu2wtd8rjsbl1xs"},{"rt":9835,"responses":"{\"Q0\":3}","trial_type":"survey-likert","trial_index":8,"time_elapsed":116794,"internal_node_id":"0.0-3.0-4.0-0.1","responseType":"finish","participantID":"p7ej75uamrktb8q47hu2wtd8rjsbl1xs"},{"rt":1636,"stimulus":"\u003cblockquote\u003e\n  \u003cp\u003eNow an anagram will be shown to you. \u003cbr\u003e\u003cbr\u003e Press 'v' to view the anagram.\u003c/p\u003e\n\u003c/blockquote\u003e","key_press":86,"trial_type":"html-keyboard-response","trial_index":9,"time_elapsed":118431,"internal_node_id":"0.0-3.1-0.1","responseType":"finish","participantID":"p7ej75uamrktb8q47hu2wtd8rjsbl1xs"},{"rt":null,"stimulus":"\u003cb\u003e\u003ccenter\u003e\u003ch2\u003e\u003cp\u003eVLVOO\u003c/p\u003e\u003c/h2\u003e\u003c/center\u003e\u003c/b\u003e","key_press":null,"trial_type":"html-keyboard-response","trial_index":10,"time_elapsed":118934,"internal_node_id":"0.0-3.1-1.1","responseType":"finish","participantID":"p7ej75uamrktb8q47hu2wtd8rjsbl1xs"},{"rt":6476.539999945089,"response":"3.6","stimulus":"\u003cp\u003eHow long do you think it will take you to solve this anagram?\u003c/p\u003e","trial_type":"html-slider-response","trial_index":11,"time_elapsed":125413,"internal_node_id":"0.0-3.1-2.1","responseType":"finish","participantID":"p7ej75uamrktb8q47hu2wtd8rjsbl1xs"},{"rt":9184,"responses":"{\"Q0\":\"Volvo\"}","trial_type":"survey-text","trial_index":12,"time_elapsed":134599,"internal_node_id":"0.0-3.1-3.1-0.1","responseType":"finish","participantID":"p7ej75uamrktb8q47hu2wtd8rjsbl1xs"},{"rt":2701,"responses":"{\"Q0\":6}","trial_type":"survey-likert","trial_index":13,"time_elapsed":137301,"internal_node_id":"0.0-3.1-4.1-0.2","responseType":"finish","participantID":"p7ej75uamrktb8q47hu2wtd8rjsbl1xs"},{"rt":2547,"responses":"{\"Q0\":6}","trial_type":"survey-likert","trial_index":14,"time_elapsed":139850,"internal_node_id":"0.0-3.1-4.1-0.3","responseType":"finish","participantID":"p7ej75uamrktb8q47hu2wtd8rjsbl1xs"},{"rt":1133,"stimulus":"\u003cblockquote\u003e\n  \u003cp\u003eNow an anagram will be shown to you. \u003cbr\u003e\u003cbr\u003e Press 'v' to view the anagram.\u003c/p\u003e\n\u003c/blockquote\u003e","key_press":86,"trial_type":"html-keyboard-response","trial_index":15,"time_elapsed":140984,"internal_node_id":"0.0-3.2-0.2","responseType":"finish","participantID":"p7ej75uamrktb8q47hu2wtd8rjsbl1xs"},{"rt":null,"stimulus":"\u003cb\u003e\u003ccenter\u003e\u003ch2\u003e\u003cp\u003eOGANRCI\u003c/p\u003e\u003c/h2\u003e\u003c/center\u003e\u003c/b\u003e","key_press":null,"trial_type":"html-keyboard-response","trial_index":16,"time_elapsed":141486,"internal_node_id":"0.0-3.2-1.2","responseType":"finish","participantID":"p7ej75uamrktb8q47hu2wtd8rjsbl1xs"},{"rt":2222.2200001124293,"response":"1.8","stimulus":"\u003cp\u003eHow long do you think it will take you to solve this anagram?\u003c/p\u003e","trial_type":"html-slider-response","trial_index":17,"time_elapsed":143710,"internal_node_id":"0.0-3.2-2.2","responseType":"finish","participantID":"p7ej75uamrktb8q47hu2wtd8rjsbl1xs"},{"rt":10160,"responses":"{\"Q0\":\"Organic\"}","trial_type":"survey-text","trial_index":18,"time_elapsed":153872,"internal_node_id":"0.0-3.2-3.2-0.2","responseType":"finish","participantID":"p7ej75uamrktb8q47hu2wtd8rjsbl1xs"},{"rt":2761,"responses":"{\"Q0\":4}","trial_type":"survey-likert","trial_index":19,"time_elapsed":156651,"internal_node_id":"0.0-3.2-4.2-0.4","responseType":"finish","participantID":"p7ej75uamrktb8q47hu2wtd8rjsbl1xs"},{"rt":2189,"responses":"{\"Q0\":5}","trial_type":"survey-likert","trial_index":20,"time_elapsed":158842,"internal_node_id":"0.0-3.2-4.2-0.5","responseType":"finish","participantID":"p7ej75uamrktb8q47hu2wtd8rjsbl1xs"}],"__v":0}
{"_id":{"$oid":"5d48ef3b1f672b000453107e"},"data":{"responseType":"start","participantID":"t4nwufn3xdtuxo2jv1wn7cq8pc8g3ymh"},"__v":0}
{"_id":{"$oid":"5d48efa81f672b000453107f"},"data":[{"rt":5178,"responses":"{\"Q0\":\" I consent to participate\"}","trial_type":"survey-multi-choice","trial_index":0,"time_elapsed":5183,"internal_node_id":"0.0-0.0","responseType":"finish","participantID":"t4nwufn3xdtuxo2jv1wn7cq8pc8g3ymh"},{"trial_type":"call-function","trial_index":1,"time_elapsed":5205,"internal_node_id":"0.0-1.0","responseType":"finish","participantID":"t4nwufn3xdtuxo2jv1wn7cq8pc8g3ymh"},{"view_history":"[{\"page_index\":0,\"viewing_time\":11574},{\"page_index\":1,\"viewing_time\":17460}]","rt":29035,"trial_type":"instructions","trial_index":2,"time_elapsed":34240,"internal_node_id":"0.0-2.0","responseType":"finish","participantID":"t4nwufn3xdtuxo2jv1wn7cq8pc8g3ymh"},{"rt":3596,"stimulus":"\u003cblockquote\u003e\n  \u003cp\u003eNow an anagram will be shown to you. \u003cbr\u003e\u003cbr\u003e Press 'v' to view the anagram.\u003c/p\u003e\n\u003c/blockquote\u003e","key_press":86,"trial_type":"html-keyboard-response","trial_index":3,"time_elapsed":37836,"internal_node_id":"0.0-3.0-0.0","responseType":"finish","participantID":"t4nwufn3xdtuxo2jv1wn7cq8pc8g3ymh"},{"rt":null,"stimulus":"\u003cb\u003e\u003ccenter\u003e\u003ch2\u003e\u003cp\u003eTEH\u003c/p\u003e\u003c/h2\u003e\u003c/center\u003e\u003c/b\u003e","key_press":null,"trial_type":"html-keyboard-response","trial_index":4,"time_elapsed":38341,"internal_node_id":"0.0-3.0-1.0","responseType":"finish","participantID":"t4nwufn3xdtuxo2jv1wn7cq8pc8g3ymh"},{"rt":2984.4600000069477,"response":"0","stimulus":"\u003cp\u003eHow long do you think it will take you to solve this anagram?\u003c/p\u003e","trial_type":"html-slider-response","trial_index":5,"time_elapsed":41327,"internal_node_id":"0.0-3.0-2.0","responseType":"finish","participantID":"t4nwufn3xdtuxo2jv1wn7cq8pc8g3ymh"},{"rt":4785,"responses":"{\"Q0\":\"THE\"}","trial_type":"survey-text","trial_index":6,"time_elapsed":46113,"internal_node_id":"0.0-3.0-3.0-0.0","responseType":"finish","participantID":"t4nwufn3xdtuxo2jv1wn7cq8pc8g3ymh"},{"rt":3072,"responses":"{\"Q0\":6}","trial_type":"survey-likert","trial_index":7,"time_elapsed":49188,"internal_node_id":"0.0-3.0-4.0-0.0","responseType":"finish","participantID":"t4nwufn3xdtuxo2jv1wn7cq8pc8g3ymh"},{"rt":10236,"responses":"{\"Q0\":6}","trial_type":"survey-likert","trial_index":8,"time_elapsed":59443,"internal_node_id":"0.0-3.0-4.0-0.1","responseType":"finish","participantID":"t4nwufn3xdtuxo2jv1wn7cq8pc8g3ymh"},{"rt":2597,"stimulus":"\u003cblockquote\u003e\n  \u003cp\u003eNow an anagram will be shown to you. \u003cbr\u003e\u003cbr\u003e Press 'v' to view the anagram.\u003c/p\u003e\n\u003c/blockquote\u003e","key_press":86,"trial_type":"html-keyboard-response","trial_index":9,"time_elapsed":62059,"internal_node_id":"0.0-3.1-0.1","responseType":"finish","participantID":"t4nwufn3xdtuxo2jv1wn7cq8pc8g3ymh"},{"rt":null,"stimulus":"\u003cb\u003e\u003ccenter\u003e\u003ch2\u003e\u003cp\u003eVLVOO\u003c/p\u003e\u003c/h2\u003e\u003c/center\u003e\u003c/b\u003e","key_press":null,"trial_type":"html-keyboard-response","trial_index":10,"time_elapsed":62560,"internal_node_id":"0.0-3.1-1.1","responseType":"finish","participantID":"t4nwufn3xdtuxo2jv1wn7cq8pc8g3ymh"},{"rt":7647.659999987809,"response":"3.3","stimulus":"\u003cp\u003eHow long do you think it will take you to solve this anagram?\u003c/p\u003e","trial_type":"html-slider-response","trial_index":11,"time_elapsed":70209,"internal_node_id":"0.0-3.1-2.1","responseType":"finish","participantID":"t4nwufn3xdtuxo2jv1wn7cq8pc8g3ymh"},{"rt":19187,"responses":"{\"Q0\":\"VOLVO\"}","trial_type":"survey-text","trial_index":12,"time_elapsed":89397,"internal_node_id":"0.0-3.1-3.1-0.1","responseType":"finish","participantID":"t4nwufn3xdtuxo2jv1wn7cq8pc8g3ymh"},{"rt":2817,"responses":"{\"Q0\":6}","trial_type":"survey-likert","trial_index":13,"time_elapsed":92215,"internal_node_id":"0.0-3.1-4.1-0.2","responseType":"finish","participantID":"t4nwufn3xdtuxo2jv1wn7cq8pc8g3ymh"},{"rt":3219,"responses":"{\"Q0\":6}","trial_type":"survey-likert","trial_index":14,"time_elapsed":95453,"internal_node_id":"0.0-3.1-4.1-0.3","responseType":"finish","participantID":"t4nwufn3xdtuxo2jv1wn7cq8pc8g3ymh"},{"rt":2052,"stimulus":"\u003cblockquote\u003e\n  \u003cp\u003eNow an anagram will be shown to you. \u003cbr\u003e\u003cbr\u003e Press 'v' to view the anagram.\u003c/p\u003e\n\u003c/blockquote\u003e","key_press":86,"trial_type":"html-keyboard-response","trial_index":15,"time_elapsed":97524,"internal_node_id":"0.0-3.2-0.2","responseType":"finish","participantID":"t4nwufn3xdtuxo2jv1wn7cq8pc8g3ymh"},{"rt":null,"stimulus":"\u003cb\u003e\u003ccenter\u003e\u003ch2\u003e\u003cp\u003eOGANRCI\u003c/p\u003e\u003c/h2\u003e\u003c/center\u003e\u003c/b\u003e","key_press":null,"trial_type":"html-keyboard-response","trial_index":16,"time_elapsed":98025,"internal_node_id":"0.0-3.2-1.2","responseType":"finish","participantID":"t4nwufn3xdtuxo2jv1wn7cq8pc8g3ymh"},{"rt":3692.5500000070315,"response":"0","stimulus":"\u003cp\u003eHow long do you think it will take you to solve this anagram?\u003c/p\u003e","trial_type":"html-slider-response","trial_index":17,"time_elapsed":101719,"internal_node_id":"0.0-3.2-2.2","responseType":"finish","participantID":"t4nwufn3xdtuxo2jv1wn7cq8pc8g3ymh"},{"rt":7194,"responses":"{\"Q0\":\"ORGANIC\"}","trial_type":"survey-text","trial_index":18,"time_elapsed":108915,"internal_node_id":"0.0-3.2-3.2-0.2","responseType":"finish","participantID":"t4nwufn3xdtuxo2jv1wn7cq8pc8g3ymh"},{"rt":2563,"responses":"{\"Q0\":6}","trial_type":"survey-likert","trial_index":19,"time_elapsed":111479,"internal_node_id":"0.0-3.2-4.2-0.4","responseType":"finish","participantID":"t4nwufn3xdtuxo2jv1wn7cq8pc8g3ymh"},{"rt":2543,"responses":"{\"Q0\":6}","trial_type":"survey-likert","trial_index":20,"time_elapsed":114041,"internal_node_id":"0.0-3.2-4.2-0.5","responseType":"finish","participantID":"t4nwufn3xdtuxo2jv1wn7cq8pc8g3ymh"}],"__v":0}
{"_id":{"$oid":"5d48f36b1f672b0004531080"},"data":{"responseType":"start","participantID":"lr2zyv4vwg8exg7c7x04r5haw1twy8mw"},"__v":0}
{"_id":{"$oid":"5d48f38f1f672b0004531081"},"data":{"responseType":"start","participantID":"9ld3fehjs6e4a9rjzny749ae2onb0mqz"},"__v":0}
{"_id":{"$oid":"5d48f3c51f672b0004531082"},"data":[{"rt":79441,"responses":"{\"Q0\":\" I consent to participate\"}","trial_type":"survey-multi-choice","trial_index":0,"time_elapsed":79447,"internal_node_id":"0.0-0.0","responseType":"finish","participantID":"9ld3fehjs6e4a9rjzny749ae2onb0mqz"},{"trial_type":"call-function","trial_index":1,"time_elapsed":79452,"internal_node_id":"0.0-1.0","responseType":"finish","participantID":"9ld3fehjs6e4a9rjzny749ae2onb0mqz"},{"view_history":"[{\"page_index\":0,\"viewing_time\":4516},{\"page_index\":1,\"viewing_time\":4610}]","rt":9127,"trial_type":"instructions","trial_index":2,"time_elapsed":88580,"internal_node_id":"0.0-2.0","responseType":"finish","participantID":"9ld3fehjs6e4a9rjzny749ae2onb0mqz"},{"rt":1591,"stimulus":"\u003cblockquote\u003e\n  \u003cp\u003eNow an anagram will be shown to you. \u003cbr\u003e\u003cbr\u003e Press 'v' to view the anagram.\u003c/p\u003e\n\u003c/blockquote\u003e","key_press":86,"trial_type":"html-keyboard-response","trial_index":3,"time_elapsed":90173,"internal_node_id":"0.0-3.0-0.0","responseType":"finish","participantID":"9ld3fehjs6e4a9rjzny749ae2onb0mqz"},{"rt":null,"stimulus":"\u003cb\u003e\u003ccenter\u003e\u003ch2\u003e\u003cp\u003eTEH\u003c/p\u003e\u003c/h2\u003e\u003c/center\u003e\u003c/b\u003e","key_press":null,"trial_type":"html-keyboard-response","trial_index":4,"time_elapsed":90677,"internal_node_id":"0.0-3.0-1.0","responseType":"finish","participantID":"9ld3fehjs6e4a9rjzny749ae2onb0mqz"},{"rt":2463.824999984354,"response":"0","stimulus":"\u003cp\u003eHow long do you think it will take you to solve this anagram?\u003c/p\u003e","trial_type":"html-slider-response","trial_index":5,"time_elapsed":93143,"internal_node_id":"0.0-3.0-2.0","responseType":"finish","participantID":"9ld3fehjs6e4a9rjzny749ae2onb0mqz"},{"rt":1841,"responses":"{\"Q0\":\"the\"}","trial_type":"survey-text","trial_index":6,"time_elapsed":94986,"internal_node_id":"0.0-3.0-3.0-0.0","responseType":"finish","participantID":"9ld3fehjs6e4a9rjzny749ae2onb0mqz"},{"rt":2455,"responses":"{\"Q0\":6}","trial_type":"survey-likert","trial_index":7,"time_elapsed":97443,"internal_node_id":"0.0-3.0-4.0-0.0","responseType":"finish","participantID":"9ld3fehjs6e4a9rjzny749ae2onb0mqz"},{"rt":7458,"responses":"{\"Q0\":6}","trial_type":"survey-likert","trial_index":8,"time_elapsed":104904,"internal_node_id":"0.0-3.0-4.0-0.1","responseType":"finish","participantID":"9ld3fehjs6e4a9rjzny749ae2onb0mqz"},{"rt":1340,"stimulus":"\u003cblockquote\u003e\n  \u003cp\u003eNow an anagram will be shown to you. \u003cbr\u003e\u003cbr\u003e Press 'v' to view the anagram.\u003c/p\u003e\n\u003c/blockquote\u003e","key_press":86,"trial_type":"html-keyboard-response","trial_index":9,"time_elapsed":106245,"internal_node_id":"0.0-3.1-0.1","responseType":"finish","participantID":"9ld3fehjs6e4a9rjzny749ae2onb0mqz"},{"rt":null,"stimulus":"\u003cb\u003e\u003ccenter\u003e\u003ch2\u003e\u003cp\u003eVLVOO\u003c/p\u003e\u003c/h2\u003e\u003c/center\u003e\u003c/b\u003e","key_press":null,"trial_type":"html-keyboard-response","trial_index":10,"time_elapsed":106747,"internal_node_id":"0.0-3.1-1.1","responseType":"finish","participantID":"9ld3fehjs6e4a9rjzny749ae2onb0mqz"},{"rt":4903.874999959953,"response":"0.8","stimulus":"\u003cp\u003eHow long do you think it will take you to solve this anagram?\u003c/p\u003e","trial_type":"html-slider-response","trial_index":11,"time_elapsed":111652,"internal_node_id":"0.0-3.1-2.1","responseType":"finish","participantID":"9ld3fehjs6e4a9rjzny749ae2onb0mqz"},{"rt":3233,"responses":"{\"Q0\":\"volvo\"}","trial_type":"survey-text","trial_index":12,"time_elapsed":114886,"internal_node_id":"0.0-3.1-3.1-0.1","responseType":"finish","participantID":"9ld3fehjs6e4a9rjzny749ae2onb0mqz"},{"rt":4867,"responses":"{\"Q0\":5}","trial_type":"survey-likert","trial_index":13,"time_elapsed":119754,"internal_node_id":"0.0-3.1-4.1-0.2","responseType":"finish","participantID":"9ld3fehjs6e4a9rjzny749ae2onb0mqz"},{"rt":2976,"responses":"{\"Q0\":1}","trial_type":"survey-likert","trial_index":14,"time_elapsed":122732,"internal_node_id":"0.0-3.1-4.1-0.3","responseType":"finish","participantID":"9ld3fehjs6e4a9rjzny749ae2onb0mqz"},{"rt":1466,"stimulus":"\u003cblockquote\u003e\n  \u003cp\u003eNow an anagram will be shown to you. \u003cbr\u003e\u003cbr\u003e Press 'v' to view the anagram.\u003c/p\u003e\n\u003c/blockquote\u003e","key_press":86,"trial_type":"html-keyboard-response","trial_index":15,"time_elapsed":124199,"internal_node_id":"0.0-3.2-0.2","responseType":"finish","participantID":"9ld3fehjs6e4a9rjzny749ae2onb0mqz"},{"rt":null,"stimulus":"\u003cb\u003e\u003ccenter\u003e\u003ch2\u003e\u003cp\u003eOGANRCI\u003c/p\u003e\u003c/h2\u003e\u003c/center\u003e\u003c/b\u003e","key_press":null,"trial_type":"html-keyboard-response","trial_index":16,"time_elapsed":124701,"internal_node_id":"0.0-3.2-1.2","responseType":"finish","participantID":"9ld3fehjs6e4a9rjzny749ae2onb0mqz"},{"rt":1944.5600000326522,"response":"0","stimulus":"\u003cp\u003eHow long do you think it will take you to solve this anagram?\u003c/p\u003e","trial_type":"html-slider-response","trial_index":17,"time_elapsed":126647,"internal_node_id":"0.0-3.2-2.2","responseType":"finish","participantID":"9ld3fehjs6e4a9rjzny749ae2onb0mqz"},{"rt":2937,"responses":"{\"Q0\":\"organic\"}","trial_type":"survey-text","trial_index":18,"time_elapsed":129585,"internal_node_id":"0.0-3.2-3.2-0.2","responseType":"finish","participantID":"9ld3fehjs6e4a9rjzny749ae2onb0mqz"},{"rt":2000,"responses":"{\"Q0\":6}","trial_type":"survey-likert","trial_index":19,"time_elapsed":131587,"internal_node_id":"0.0-3.2-4.2-0.4","responseType":"finish","participantID":"9ld3fehjs6e4a9rjzny749ae2onb0mqz"},{"rt":1742,"responses":"{\"Q0\":5}","trial_type":"survey-likert","trial_index":20,"time_elapsed":133331,"internal_node_id":"0.0-3.2-4.2-0.5","responseType":"finish","participantID":"9ld3fehjs6e4a9rjzny749ae2onb0mqz"}],"__v":0}
{"_id":{"$oid":"5d48fa931f672b0004531083"},"data":{"responseType":"start","participantID":"wdsudkbdo1tdmggmjyz9kzqyjsgnw4es"},"__v":0}
{"_id":{"$oid":"5d48facd1f672b0004531084"},"data":{"responseType":"start","participantID":"5yv2bavomv2wjhf5cqr9e49bvmjur618"},"__v":0}
{"_id":{"$oid":"5d48fae81f672b0004531085"},"data":{"responseType":"start","participantID":"f7k9v409ogrmgvq6owdxn7842tn0sxrx"},"__v":0}
{"_id":{"$oid":"5d48fb1f1f672b0004531086"},"data":[{"rt":3450,"responses":"{\"Q0\":\" I consent to participate\"}","trial_type":"survey-multi-choice","trial_index":0,"time_elapsed":3455,"internal_node_id":"0.0-0.0","responseType":"finish","participantID":"f7k9v409ogrmgvq6owdxn7842tn0sxrx"},{"trial_type":"call-function","trial_index":1,"time_elapsed":3458,"internal_node_id":"0.0-1.0","responseType":"finish","participantID":"f7k9v409ogrmgvq6owdxn7842tn0sxrx"},{"view_history":"[{\"page_index\":0,\"viewing_time\":4090},{\"page_index\":1,\"viewing_time\":5559}]","rt":9649,"trial_type":"instructions","trial_index":2,"time_elapsed":13107,"internal_node_id":"0.0-2.0","responseType":"finish","participantID":"f7k9v409ogrmgvq6owdxn7842tn0sxrx"},{"rt":1456,"stimulus":"\u003cblockquote\u003e\n  \u003cp\u003eNow an anagram will be shown to you. \u003cbr\u003e\u003cbr\u003e Press 'v' to view the anagram.\u003c/p\u003e\n\u003c/blockquote\u003e","key_press":86,"trial_type":"html-keyboard-response","trial_index":3,"time_elapsed":14565,"internal_node_id":"0.0-3.0-0.0","responseType":"finish","participantID":"f7k9v409ogrmgvq6owdxn7842tn0sxrx"},{"rt":null,"stimulus":"\u003cb\u003e\u003ccenter\u003e\u003ch2\u003e\u003cp\u003eTEH\u003c/p\u003e\u003c/h2\u003e\u003c/center\u003e\u003c/b\u003e","key_press":null,"trial_type":"html-keyboard-response","trial_index":4,"time_elapsed":15069,"internal_node_id":"0.0-3.0-1.0","responseType":"finish","participantID":"f7k9v409ogrmgvq6owdxn7842tn0sxrx"},{"rt":4271.1799999233335,"response":"0","stimulus":"\u003cp\u003eHow long do you think it will take you to solve this anagram?\u003c/p\u003e","trial_type":"html-slider-response","trial_index":5,"time_elapsed":19342,"internal_node_id":"0.0-3.0-2.0","responseType":"finish","participantID":"f7k9v409ogrmgvq6owdxn7842tn0sxrx"},{"rt":1451,"responses":"{\"Q0\":\"the\"}","trial_type":"survey-text","trial_index":6,"time_elapsed":20794,"internal_node_id":"0.0-3.0-3.0-0.0","responseType":"finish","participantID":"f7k9v409ogrmgvq6owdxn7842tn0sxrx"},{"rt":2825,"responses":"{\"Q0\":4}","trial_type":"survey-likert","trial_index":7,"time_elapsed":23622,"internal_node_id":"0.0-3.0-4.0-0.0","responseType":"finish","participantID":"f7k9v409ogrmgvq6owdxn7842tn0sxrx"},{"rt":4955,"responses":"{\"Q0\":6}","trial_type":"survey-likert","trial_index":8,"time_elapsed":28579,"internal_node_id":"0.0-3.0-4.0-0.1","responseType":"finish","participantID":"f7k9v409ogrmgvq6owdxn7842tn0sxrx"},{"rt":1243,"stimulus":"\u003cblockquote\u003e\n  \u003cp\u003eNow an anagram will be shown to you. \u003cbr\u003e\u003cbr\u003e Press 'v' to view the anagram.\u003c/p\u003e\n\u003c/blockquote\u003e","key_press":86,"trial_type":"html-keyboard-response","trial_index":9,"time_elapsed":29824,"internal_node_id":"0.0-3.1-0.1","responseType":"finish","participantID":"f7k9v409ogrmgvq6owdxn7842tn0sxrx"},{"rt":null,"stimulus":"\u003cb\u003e\u003ccenter\u003e\u003ch2\u003e\u003cp\u003eVLVOO\u003c/p\u003e\u003c/h2\u003e\u003c/center\u003e\u003c/b\u003e","key_press":null,"trial_type":"html-keyboard-response","trial_index":10,"time_elapsed":30325,"internal_node_id":"0.0-3.1-1.1","responseType":"finish","participantID":"f7k9v409ogrmgvq6owdxn7842tn0sxrx"},{"rt":6552.574999979697,"response":"0.4","stimulus":"\u003cp\u003eHow long do you think it will take you to solve this anagram?\u003c/p\u003e","trial_type":"html-slider-response","trial_index":11,"time_elapsed":36878,"internal_node_id":"0.0-3.1-2.1","responseType":"finish","participantID":"f7k9v409ogrmgvq6owdxn7842tn0sxrx"},{"rt":1739,"responses":"{\"Q0\":\"volvo\"}","trial_type":"survey-text","trial_index":12,"time_elapsed":38619,"internal_node_id":"0.0-3.1-3.1-0.1","responseType":"finish","participantID":"f7k9v409ogrmgvq6owdxn7842tn0sxrx"},{"rt":4411,"responses":"{\"Q0\":4}","trial_type":"survey-likert","trial_index":13,"time_elapsed":43031,"internal_node_id":"0.0-3.1-4.1-0.2","responseType":"finish","participantID":"f7k9v409ogrmgvq6owdxn7842tn0sxrx"},{"rt":2210,"responses":"{\"Q0\":5}","trial_type":"survey-likert","trial_index":14,"time_elapsed":45243,"internal_node_id":"0.0-3.1-4.1-0.3","responseType":"finish","participantID":"f7k9v409ogrmgvq6owdxn7842tn0sxrx"},{"rt":1463,"stimulus":"\u003cblockquote\u003e\n  \u003cp\u003eNow an anagram will be shown to you. \u003cbr\u003e\u003cbr\u003e Press 'v' to view the anagram.\u003c/p\u003e\n\u003c/blockquote\u003e","key_press":86,"trial_type":"html-keyboard-response","trial_index":15,"time_elapsed":46707,"internal_node_id":"0.0-3.2-0.2","responseType":"finish","participantID":"f7k9v409ogrmgvq6owdxn7842tn0sxrx"},{"rt":null,"stimulus":"\u003cb\u003e\u003ccenter\u003e\u003ch2\u003e\u003cp\u003eOGANRCI\u003c/p\u003e\u003c/h2\u003e\u003c/center\u003e\u003c/b\u003e","key_press":null,"trial_type":"html-keyboard-response","trial_index":16,"time_elapsed":47209,"internal_node_id":"0.0-3.2-1.2","responseType":"finish","participantID":"f7k9v409ogrmgvq6owdxn7842tn0sxrx"},{"rt":2834.3950000125915,"response":"0","stimulus":"\u003cp\u003eHow long do you think it will take you to solve this anagram?\u003c/p\u003e","trial_type":"html-slider-response","trial_index":17,"time_elapsed":50045,"internal_node_id":"0.0-3.2-2.2","responseType":"finish","participantID":"f7k9v409ogrmgvq6owdxn7842tn0sxrx"},{"rt":2333,"responses":"{\"Q0\":\"organic\"}","trial_type":"survey-text","trial_index":18,"time_elapsed":52380,"internal_node_id":"0.0-3.2-3.2-0.2","responseType":"finish","participantID":"f7k9v409ogrmgvq6owdxn7842tn0sxrx"},{"rt":2835,"responses":"{\"Q0\":5}","trial_type":"survey-likert","trial_index":19,"time_elapsed":55217,"internal_node_id":"0.0-3.2-4.2-0.4","responseType":"finish","participantID":"f7k9v409ogrmgvq6owdxn7842tn0sxrx"},{"rt":3137,"responses":"{\"Q0\":6}","trial_type":"survey-likert","trial_index":20,"time_elapsed":58355,"internal_node_id":"0.0-3.2-4.2-0.5","responseType":"finish","participantID":"f7k9v409ogrmgvq6owdxn7842tn0sxrx"}],"__v":0}
{"_id":{"$oid":"5d48fb421f672b0004531087"},"data":{"responseType":"start","participantID":"e5kaz8h48ualttyx248g9pkjpkscv98n"},"__v":0}
