{"_id":{"$oid":"5d4bad829320010004aad863"},"data":{"responseType":"start","participantID":"d5daax1olzg4rfx6y3eagql5kve7lyu0","anagrams_seen":["BLUK","HNATUYG","TEH"],"anagrams_answers":["BULK","NAUGHTY","THE"]},"__v":0}
{"_id":{"$oid":"5d4badb49320010004aad864"},"data":[{"rt":6687,"responses":"{\"Q0\":\" I consent to participate\"}","trial_type":"survey-multi-choice","trial_index":0,"time_elapsed":6701,"internal_node_id":"0.0-0.0","responseType":"finish","participantID":"d5daax1olzg4rfx6y3eagql5kve7lyu0","anagrams_seen":["BLUK","HNATUYG","TEH"],"anagrams_answers":["BULK","NAUGHTY","THE"]},{"trial_type":"call-function","trial_index":1,"time_elapsed":6721,"internal_node_id":"0.0-1.0","responseType":"finish","participantID":"d5daax1olzg4rfx6y3eagql5kve7lyu0","anagrams_seen":["BLUK","HNATUYG","TEH"],"anagrams_answers":["BULK","NAUGHTY","THE"]},{"view_history":"[{\"page_index\":0,\"viewing_time\":2000},{\"page_index\":1,\"viewing_time\":674}]","rt":2675,"trial_type":"instructions","trial_index":2,"time_elapsed":9397,"internal_node_id":"0.0-2.0","responseType":"finish","participantID":"d5daax1olzg4rfx6y3eagql5kve7lyu0","anagrams_seen":["BLUK","HNATUYG","TEH"],"anagrams_answers":["BULK","NAUGHTY","THE"]},{"rt":1350,"stimulus":"\u003cblockquote\u003e\n  \u003cp\u003eNow an anagram will be shown to you. \u003cbr\u003e\u003cbr\u003e Press 'v' to view the anagram.\u003c/p\u003e\n\u003c/blockquote\u003e","key_press":86,"trial_type":"html-keyboard-response","trial_index":3,"time_elapsed":10750,"internal_node_id":"0.0-3.0-0.0","responseType":"finish","participantID":"d5daax1olzg4rfx6y3eagql5kve7lyu0","anagrams_seen":["BLUK","HNATUYG","TEH"],"anagrams_answers":["BULK","NAUGHTY","THE"]},{"rt":null,"stimulus":"\u003cb\u003e\u003ccenter\u003e\u003ch2\u003e\u003cp\u003eBLUK\u003c/p\u003e\u003c/h2\u003e\u003c/center\u003e\u003c/b\u003e","key_press":null,"trial_type":"html-keyboard-response","trial_index":4,"time_elapsed":11279,"internal_node_id":"0.0-3.0-1.0","responseType":"finish","participantID":"d5daax1olzg4rfx6y3eagql5kve7lyu0","anagrams_seen":["BLUK","HNATUYG","TEH"],"anagrams_answers":["BULK","NAUGHTY","THE"]},{"rt":3242.804999987129,"response":"1","stimulus":"\u003cp\u003eHow long do you think it will take you to solve this anagram?\u003c/p\u003e","trial_type":"html-slider-response","trial_index":5,"time_elapsed":14527,"internal_node_id":"0.0-3.0-2.0","responseType":"finish","participantID":"d5daax1olzg4rfx6y3eagql5kve7lyu0","anagrams_seen":["BLUK","HNATUYG","TEH"],"anagrams_answers":["BULK","NAUGHTY","THE"]},{"rt":6713,"responses":"{\"Q0\":\"bulgk\"}","trial_type":"survey-text","trial_index":6,"time_elapsed":21244,"internal_node_id":"0.0-3.0-3.0-0.0","responseType":"finish","participantID":"d5daax1olzg4rfx6y3eagql5kve7lyu0","anagrams_seen":["BLUK","HNATUYG","TEH"],"anagrams_answers":["BULK","NAUGHTY","THE"]},{"rt":3887,"responses":"{\"Q0\":\"bulk\"}","trial_type":"survey-text","trial_index":7,"time_elapsed":26428,"internal_node_id":"0.0-3.0-3.1-0.1","responseType":"finish","participantID":"d5daax1olzg4rfx6y3eagql5kve7lyu0","anagrams_seen":["BLUK","HNATUYG","TEH"],"anagrams_answers":["BULK","NAUGHTY","THE"]},{"rt":2381,"responses":"{\"Q0\":1}","trial_type":"survey-likert","trial_index":8,"time_elapsed":28820,"internal_node_id":"0.0-3.0-4.0-0.0","responseType":"finish","participantID":"d5daax1olzg4rfx6y3eagql5kve7lyu0","anagrams_seen":["BLUK","HNATUYG","TEH"],"anagrams_answers":["BULK","NAUGHTY","THE"]},{"rt":1065,"stimulus":"\u003cblockquote\u003e\n  \u003cp\u003eNow an anagram will be shown to you. \u003cbr\u003e\u003cbr\u003e Press 'v' to view the anagram.\u003c/p\u003e\n\u003c/blockquote\u003e","key_press":86,"trial_type":"html-keyboard-response","trial_index":9,"time_elapsed":29888,"internal_node_id":"0.0-3.1-0.1","responseType":"finish","participantID":"d5daax1olzg4rfx6y3eagql5kve7lyu0","anagrams_seen":["BLUK","HNATUYG","TEH"],"anagrams_answers":["BULK","NAUGHTY","THE"]},{"rt":null,"stimulus":"\u003cb\u003e\u003ccenter\u003e\u003ch2\u003e\u003cp\u003eHNATUYG\u003c/p\u003e\u003c/h2\u003e\u003c/center\u003e\u003c/b\u003e","key_press":null,"trial_type":"html-keyboard-response","trial_index":10,"time_elapsed":30392,"internal_node_id":"0.0-3.1-1.1","responseType":"finish","participantID":"d5daax1olzg4rfx6y3eagql5kve7lyu0","anagrams_seen":["BLUK","HNATUYG","TEH"],"anagrams_answers":["BULK","NAUGHTY","THE"]},{"rt":4300.419999985024,"response":"4.4","stimulus":"\u003cp\u003eHow long do you think it will take you to solve this anagram?\u003c/p\u003e","trial_type":"html-slider-response","trial_index":11,"time_elapsed":34698,"internal_node_id":"0.0-3.1-2.1","responseType":"finish","participantID":"d5daax1olzg4rfx6y3eagql5kve7lyu0","anagrams_seen":["BLUK","HNATUYG","TEH"],"anagrams_answers":["BULK","NAUGHTY","THE"]},{"rt":4732,"responses":"{\"Q0\":\"naughty\"}","trial_type":"survey-text","trial_index":12,"time_elapsed":39436,"internal_node_id":"0.0-3.1-3.2-0.2","responseType":"finish","participantID":"d5daax1olzg4rfx6y3eagql5kve7lyu0","anagrams_seen":["BLUK","HNATUYG","TEH"],"anagrams_answers":["BULK","NAUGHTY","THE"]},{"rt":2778,"responses":"{\"Q0\":1}","trial_type":"survey-likert","trial_index":13,"time_elapsed":42219,"internal_node_id":"0.0-3.1-4.1-0.1","responseType":"finish","participantID":"d5daax1olzg4rfx6y3eagql5kve7lyu0","anagrams_seen":["BLUK","HNATUYG","TEH"],"anagrams_answers":["BULK","NAUGHTY","THE"]},{"rt":1107,"stimulus":"\u003cblockquote\u003e\n  \u003cp\u003eNow an anagram will be shown to you. \u003cbr\u003e\u003cbr\u003e Press 'v' to view the anagram.\u003c/p\u003e\n\u003c/blockquote\u003e","key_press":86,"trial_type":"html-keyboard-response","trial_index":14,"time_elapsed":43329,"internal_node_id":"0.0-3.2-0.2","responseType":"finish","participantID":"d5daax1olzg4rfx6y3eagql5kve7lyu0","anagrams_seen":["BLUK","HNATUYG","TEH"],"anagrams_answers":["BULK","NAUGHTY","THE"]},{"rt":null,"stimulus":"\u003cb\u003e\u003ccenter\u003e\u003ch2\u003e\u003cp\u003eTEH\u003c/p\u003e\u003c/h2\u003e\u003c/center\u003e\u003c/b\u003e","key_press":null,"trial_type":"html-keyboard-response","trial_index":15,"time_elapsed":43843,"internal_node_id":"0.0-3.2-1.2","responseType":"finish","participantID":"d5daax1olzg4rfx6y3eagql5kve7lyu0","anagrams_seen":["BLUK","HNATUYG","TEH"],"anagrams_answers":["BULK","NAUGHTY","THE"]},{"rt":2198.2899999711663,"response":"1.4","stimulus":"\u003cp\u003eHow long do you think it will take you to solve this anagram?\u003c/p\u003e","trial_type":"html-slider-response","trial_index":16,"time_elapsed":46044,"internal_node_id":"0.0-3.2-2.2","responseType":"finish","participantID":"d5daax1olzg4rfx6y3eagql5kve7lyu0","anagrams_seen":["BLUK","HNATUYG","TEH"],"anagrams_answers":["BULK","NAUGHTY","THE"]},{"rt":3971,"responses":"{\"Q0\":\"heg\"}","trial_type":"survey-text","trial_index":17,"time_elapsed":50018,"internal_node_id":"0.0-3.2-3.3-0.3","responseType":"finish","participantID":"d5daax1olzg4rfx6y3eagql5kve7lyu0","anagrams_seen":["BLUK","HNATUYG","TEH"],"anagrams_answers":["BULK","NAUGHTY","THE"]},{"rt":3582,"responses":"{\"Q0\":\"the\"}","trial_type":"survey-text","trial_index":18,"time_elapsed":54733,"internal_node_id":"0.0-3.2-3.4-0.4","responseType":"finish","participantID":"d5daax1olzg4rfx6y3eagql5kve7lyu0","anagrams_seen":["BLUK","HNATUYG","TEH"],"anagrams_answers":["BULK","NAUGHTY","THE"]},{"rt":2118,"responses":"{\"Q0\":1}","trial_type":"survey-likert","trial_index":19,"time_elapsed":56858,"internal_node_id":"0.0-3.2-4.2-0.2","responseType":"finish","participantID":"d5daax1olzg4rfx6y3eagql5kve7lyu0","anagrams_seen":["BLUK","HNATUYG","TEH"],"anagrams_answers":["BULK","NAUGHTY","THE"]}],"__v":0}
