{"_id":{"$oid":"5d4c6b99d0946a0004f48f21"},"data":{"responseType":"start","participantID":"zq0bhtgapac4to1olx53rmkkou2krcrd","anagrams_seen":["IORCNAG","KHAOMCM","SROT"],"anagrams_answers":["ORGANIC","HAMMOCK","SORT"]},"__v":0}
{"_id":{"$oid":"5d4c6ba3d0946a0004f48f22"},"data":{"responseType":"start","participantID":"jc1rzrd5v0wl51dsrq5ptff7yjf4ru52","anagrams_seen":["SROT","BLUK","VLVOO"],"anagrams_answers":["SORT","BULK","VOLVO"]},"__v":0}
{"_id":{"$oid":"5d4c6ba5d0946a0004f48f23"},"data":{"responseType":"start","participantID":"v20hkogaob41411wtfvqtj3jt3qf2vgx","anagrams_seen":["HNATUYG","DALRBEU","IORCNAG"],"anagrams_answers":["NAUGHTY","DURABLE","ORGANIC"]},"__v":0}
{"_id":{"$oid":"5d4c6ba9d0946a0004f48f24"},"data":{"responseType":"start","participantID":"cr9w5jf8ug6j59u0k2s93x57j2xnnuw9","anagrams_seen":["PITN","BLUK","SROT"],"anagrams_answers":["PINT","BULK","SORT"]},"__v":0}
{"_id":{"$oid":"5d4c6bb2d0946a0004f48f25"},"data":{"responseType":"start","participantID":"7c09tuqakpb2k1tnnenhnjm9dlamvxsl","anagrams_seen":["SROT","TEH","KHAOMCM"],"anagrams_answers":["SORT","THE","HAMMOCK"]},"__v":0}
{"_id":{"$oid":"5d4c6bbbd0946a0004f48f26"},"data":{"responseType":"start","participantID":"5zpzxzbjp1af2r58n92ynr6v3usxdtqd","anagrams_seen":["HNATUYG","TEH","IORCNAG"],"anagrams_answers":["NAUGHTY","THE","ORGANIC"]},"__v":0}
{"_id":{"$oid":"5d4c6bd5d0946a0004f48f27"},"data":{"responseType":"start","participantID":"xsa8v1kuxaortdaadyx5aluc0atmcxjm","anagrams_seen":["BLUK","PITN","HNATUYG"],"anagrams_answers":["BULK","PINT","NAUGHTY"]},"__v":0}
{"_id":{"$oid":"5d4c6be6d0946a0004f48f28"},"data":{"responseType":"start","participantID":"7v111vzxb9oevc2f6koppog8xmtpqmsy","anagrams_seen":["DALRBEU","SONW","BLUK"],"anagrams_answers":["DURABLE","SNOW","BULK"]},"__v":0}
{"_id":{"$oid":"5d4c6bebd0946a0004f48f29"},"data":{"responseType":"start","participantID":"s9vyqn5va21r32l8mg2aoxh43akr3ktc","anagrams_seen":["TEH","PITN","KHAOMCM"],"anagrams_answers":["THE","PINT","HAMMOCK"]},"__v":0}
{"_id":{"$oid":"5d4c6bf5d0946a0004f48f2a"},"data":[{"rt":7359,"responses":"{\"Q0\":\" I consent to participate\"}","trial_type":"survey-multi-choice","trial_index":0,"time_elapsed":7362,"internal_node_id":"0.0-0.0","responseType":"finish","participantID":"cr9w5jf8ug6j59u0k2s93x57j2xnnuw9","anagrams_seen":["PITN","BLUK","SROT"],"anagrams_answers":["PINT","BULK","SORT"]},{"trial_type":"call-function","trial_index":1,"time_elapsed":7366,"internal_node_id":"0.0-1.0","responseType":"finish","participantID":"cr9w5jf8ug6j59u0k2s93x57j2xnnuw9","anagrams_seen":["PITN","BLUK","SROT"],"anagrams_answers":["PINT","BULK","SORT"]},{"view_history":"[{\"page_index\":0,\"viewing_time\":17816},{\"page_index\":1,\"viewing_time\":3003}]","rt":20819,"trial_type":"instructions","trial_index":2,"time_elapsed":28185,"internal_node_id":"0.0-2.0","responseType":"finish","participantID":"cr9w5jf8ug6j59u0k2s93x57j2xnnuw9","anagrams_seen":["PITN","BLUK","SROT"],"anagrams_answers":["PINT","BULK","SORT"]},{"rt":1619,"stimulus":"\u003cblockquote\u003e\n  \u003cp\u003eNow an anagram will be shown to you. \u003cbr\u003e\u003cbr\u003e Press 'v' to view the anagram.\u003c/p\u003e\n\u003c/blockquote\u003e","key_press":86,"trial_type":"html-keyboard-response","trial_index":3,"time_elapsed":29805,"internal_node_id":"0.0-3.0-0.0","responseType":"finish","participantID":"cr9w5jf8ug6j59u0k2s93x57j2xnnuw9","anagrams_seen":["PITN","BLUK","SROT"],"anagrams_answers":["PINT","BULK","SORT"]},{"rt":null,"stimulus":"\u003cb\u003e\u003ccenter\u003e\u003ch2\u003e\u003cp\u003ePITN\u003c/p\u003e\u003c/h2\u003e\u003c/center\u003e\u003c/b\u003e","key_press":null,"trial_type":"html-keyboard-response","trial_index":4,"time_elapsed":30309,"internal_node_id":"0.0-3.0-1.0","responseType":"finish","participantID":"cr9w5jf8ug6j59u0k2s93x57j2xnnuw9","anagrams_seen":["PITN","BLUK","SROT"],"anagrams_answers":["PINT","BULK","SORT"]},{"rt":5373.149999999441,"response":"2","stimulus":"\u003cp\u003eHow long do you think it will take you to solve this anagram?\u003c/p\u003e","trial_type":"html-slider-response","trial_index":5,"time_elapsed":35683,"internal_node_id":"0.0-3.0-2.0","responseType":"finish","participantID":"cr9w5jf8ug6j59u0k2s93x57j2xnnuw9","anagrams_seen":["PITN","BLUK","SROT"],"anagrams_answers":["PINT","BULK","SORT"]},{"rt":10066,"responses":"{\"Q0\":\"pint\"}","trial_type":"survey-text","trial_index":6,"time_elapsed":45749,"internal_node_id":"0.0-3.0-3.0-0.0","responseType":"finish","participantID":"cr9w5jf8ug6j59u0k2s93x57j2xnnuw9","anagrams_seen":["PITN","BLUK","SROT"],"anagrams_answers":["PINT","BULK","SORT"]},{"rt":8579,"responses":"{\"Q0\":2}","trial_type":"survey-likert","trial_index":7,"time_elapsed":54329,"internal_node_id":"0.0-3.0-4.0-0.0","responseType":"finish","participantID":"cr9w5jf8ug6j59u0k2s93x57j2xnnuw9","anagrams_seen":["PITN","BLUK","SROT"],"anagrams_answers":["PINT","BULK","SORT"]},{"rt":1444,"stimulus":"\u003cblockquote\u003e\n  \u003cp\u003eNow an anagram will be shown to you. \u003cbr\u003e\u003cbr\u003e Press 'v' to view the anagram.\u003c/p\u003e\n\u003c/blockquote\u003e","key_press":86,"trial_type":"html-keyboard-response","trial_index":8,"time_elapsed":55775,"internal_node_id":"0.0-3.1-0.1","responseType":"finish","participantID":"cr9w5jf8ug6j59u0k2s93x57j2xnnuw9","anagrams_seen":["PITN","BLUK","SROT"],"anagrams_answers":["PINT","BULK","SORT"]},{"rt":null,"stimulus":"\u003cb\u003e\u003ccenter\u003e\u003ch2\u003e\u003cp\u003eBLUK\u003c/p\u003e\u003c/h2\u003e\u003c/center\u003e\u003c/b\u003e","key_press":null,"trial_type":"html-keyboard-response","trial_index":9,"time_elapsed":56276,"internal_node_id":"0.0-3.1-1.1","responseType":"finish","participantID":"cr9w5jf8ug6j59u0k2s93x57j2xnnuw9","anagrams_seen":["PITN","BLUK","SROT"],"anagrams_answers":["PINT","BULK","SORT"]},{"rt":2728.8900000276044,"response":"1.6","stimulus":"\u003cp\u003eHow long do you think it will take you to solve this anagram?\u003c/p\u003e","trial_type":"html-slider-response","trial_index":10,"time_elapsed":59005,"internal_node_id":"0.0-3.1-2.1","responseType":"finish","participantID":"cr9w5jf8ug6j59u0k2s93x57j2xnnuw9","anagrams_seen":["PITN","BLUK","SROT"],"anagrams_answers":["PINT","BULK","SORT"]},{"rt":5691,"responses":"{\"Q0\":\"bulk\"}","trial_type":"survey-text","trial_index":11,"time_elapsed":64698,"internal_node_id":"0.0-3.1-3.1-0.1","responseType":"finish","participantID":"cr9w5jf8ug6j59u0k2s93x57j2xnnuw9","anagrams_seen":["PITN","BLUK","SROT"],"anagrams_answers":["PINT","BULK","SORT"]},{"rt":1908,"responses":"{\"Q0\":1}","trial_type":"survey-likert","trial_index":12,"time_elapsed":66606,"internal_node_id":"0.0-3.1-4.1-0.1","responseType":"finish","participantID":"cr9w5jf8ug6j59u0k2s93x57j2xnnuw9","anagrams_seen":["PITN","BLUK","SROT"],"anagrams_answers":["PINT","BULK","SORT"]},{"rt":1262,"stimulus":"\u003cblockquote\u003e\n  \u003cp\u003eNow an anagram will be shown to you. \u003cbr\u003e\u003cbr\u003e Press 'v' to view the anagram.\u003c/p\u003e\n\u003c/blockquote\u003e","key_press":86,"trial_type":"html-keyboard-response","trial_index":13,"time_elapsed":67870,"internal_node_id":"0.0-3.2-0.2","responseType":"finish","participantID":"cr9w5jf8ug6j59u0k2s93x57j2xnnuw9","anagrams_seen":["PITN","BLUK","SROT"],"anagrams_answers":["PINT","BULK","SORT"]},{"rt":null,"stimulus":"\u003cb\u003e\u003ccenter\u003e\u003ch2\u003e\u003cp\u003eSROT\u003c/p\u003e\u003c/h2\u003e\u003c/center\u003e\u003c/b\u003e","key_press":null,"trial_type":"html-keyboard-response","trial_index":14,"time_elapsed":68371,"internal_node_id":"0.0-3.2-1.2","responseType":"finish","participantID":"cr9w5jf8ug6j59u0k2s93x57j2xnnuw9","anagrams_seen":["PITN","BLUK","SROT"],"anagrams_answers":["PINT","BULK","SORT"]},{"rt":1996.2449999293312,"response":"1.3","stimulus":"\u003cp\u003eHow long do you think it will take you to solve this anagram?\u003c/p\u003e","trial_type":"html-slider-response","trial_index":15,"time_elapsed":70367,"internal_node_id":"0.0-3.2-2.2","responseType":"finish","participantID":"cr9w5jf8ug6j59u0k2s93x57j2xnnuw9","anagrams_seen":["PITN","BLUK","SROT"],"anagrams_answers":["PINT","BULK","SORT"]},{"rt":7372,"responses":"{\"Q0\":\"sort\"}","trial_type":"survey-text","trial_index":16,"time_elapsed":77741,"internal_node_id":"0.0-3.2-3.2-0.2","responseType":"finish","participantID":"cr9w5jf8ug6j59u0k2s93x57j2xnnuw9","anagrams_seen":["PITN","BLUK","SROT"],"anagrams_answers":["PINT","BULK","SORT"]},{"rt":5336,"responses":"{\"Q0\":2}","trial_type":"survey-likert","trial_index":17,"time_elapsed":83077,"internal_node_id":"0.0-3.2-4.2-0.2","responseType":"finish","participantID":"cr9w5jf8ug6j59u0k2s93x57j2xnnuw9","anagrams_seen":["PITN","BLUK","SROT"],"anagrams_answers":["PINT","BULK","SORT"]}],"__v":0}
{"_id":{"$oid":"5d4c6c00d0946a0004f48f2b"},"data":{"responseType":"start","participantID":"d8feydcb8hjrxagkz4450yw6esuyggvq","anagrams_seen":["SONW","KHAOMCM","SROT"],"anagrams_answers":["SNOW","HAMMOCK","SORT"]},"__v":0}
{"_id":{"$oid":"5d4c6c18d0946a0004f48f2c"},"data":{"responseType":"start","participantID":"jqn7cbjs8f1wb9m6unuk9xq18wnqbby2","anagrams_seen":["PITN","TEH","IORCNAG"],"anagrams_answers":["PINT","THE","ORGANIC"]},"__v":0}
{"_id":{"$oid":"5d4c6c21d0946a0004f48f2d"},"data":{"responseType":"start","participantID":"zpp0t7swdawxxawyxblxk6q3c4hakr5l","anagrams_seen":["IORCNAG","VLVOO","SONW"],"anagrams_answers":["ORGANIC","VOLVO","SNOW"]},"__v":0}
{"_id":{"$oid":"5d4c6c26d0946a0004f48f2e"},"data":[{"rt":5861,"responses":"{\"Q0\":\" I consent to participate\"}","trial_type":"survey-multi-choice","trial_index":0,"time_elapsed":5868,"internal_node_id":"0.0-0.0","responseType":"finish","participantID":"7c09tuqakpb2k1tnnenhnjm9dlamvxsl","anagrams_seen":["SROT","TEH","KHAOMCM"],"anagrams_answers":["SORT","THE","HAMMOCK"]},{"trial_type":"call-function","trial_index":1,"time_elapsed":5878,"internal_node_id":"0.0-1.0","responseType":"finish","participantID":"7c09tuqakpb2k1tnnenhnjm9dlamvxsl","anagrams_seen":["SROT","TEH","KHAOMCM"],"anagrams_answers":["SORT","THE","HAMMOCK"]},{"view_history":"[{\"page_index\":0,\"viewing_time\":40616},{\"page_index\":1,\"viewing_time\":11343}]","rt":51961,"trial_type":"instructions","trial_index":2,"time_elapsed":57840,"internal_node_id":"0.0-2.0","responseType":"finish","participantID":"7c09tuqakpb2k1tnnenhnjm9dlamvxsl","anagrams_seen":["SROT","TEH","KHAOMCM"],"anagrams_answers":["SORT","THE","HAMMOCK"]},{"rt":4184,"stimulus":"\u003cblockquote\u003e\n  \u003cp\u003eNow an anagram will be shown to you. \u003cbr\u003e\u003cbr\u003e Press 'v' to view the anagram.\u003c/p\u003e\n\u003c/blockquote\u003e","key_press":86,"trial_type":"html-keyboard-response","trial_index":3,"time_elapsed":62026,"internal_node_id":"0.0-3.0-0.0","responseType":"finish","participantID":"7c09tuqakpb2k1tnnenhnjm9dlamvxsl","anagrams_seen":["SROT","TEH","KHAOMCM"],"anagrams_answers":["SORT","THE","HAMMOCK"]},{"rt":null,"stimulus":"\u003cb\u003e\u003ccenter\u003e\u003ch2\u003e\u003cp\u003eSROT\u003c/p\u003e\u003c/h2\u003e\u003c/center\u003e\u003c/b\u003e","key_press":null,"trial_type":"html-keyboard-response","trial_index":4,"time_elapsed":62532,"internal_node_id":"0.0-3.0-1.0","responseType":"finish","participantID":"7c09tuqakpb2k1tnnenhnjm9dlamvxsl","anagrams_seen":["SROT","TEH","KHAOMCM"],"anagrams_answers":["SORT","THE","HAMMOCK"]},{"rt":5368.924999987939,"response":"0","stimulus":"\u003cp\u003eHow long do you think it will take you to solve this anagram?\u003c/p\u003e","trial_type":"html-slider-response","trial_index":5,"time_elapsed":67903,"internal_node_id":"0.0-3.0-2.0","responseType":"finish","participantID":"7c09tuqakpb2k1tnnenhnjm9dlamvxsl","anagrams_seen":["SROT","TEH","KHAOMCM"],"anagrams_answers":["SORT","THE","HAMMOCK"]},{"rt":4389,"responses":"{\"Q0\":\"sort\"}","trial_type":"survey-text","trial_index":6,"time_elapsed":72295,"internal_node_id":"0.0-3.0-3.0-0.0","responseType":"finish","participantID":"7c09tuqakpb2k1tnnenhnjm9dlamvxsl","anagrams_seen":["SROT","TEH","KHAOMCM"],"anagrams_answers":["SORT","THE","HAMMOCK"]},{"rt":14252,"responses":"{\"Q0\":2}","trial_type":"survey-likert","trial_index":7,"time_elapsed":86551,"internal_node_id":"0.0-3.0-4.0-0.0","responseType":"finish","participantID":"7c09tuqakpb2k1tnnenhnjm9dlamvxsl","anagrams_seen":["SROT","TEH","KHAOMCM"],"anagrams_answers":["SORT","THE","HAMMOCK"]},{"rt":2383,"stimulus":"\u003cblockquote\u003e\n  \u003cp\u003eNow an anagram will be shown to you. \u003cbr\u003e\u003cbr\u003e Press 'v' to view the anagram.\u003c/p\u003e\n\u003c/blockquote\u003e","key_press":86,"trial_type":"html-keyboard-response","trial_index":8,"time_elapsed":88941,"internal_node_id":"0.0-3.1-0.1","responseType":"finish","participantID":"7c09tuqakpb2k1tnnenhnjm9dlamvxsl","anagrams_seen":["SROT","TEH","KHAOMCM"],"anagrams_answers":["SORT","THE","HAMMOCK"]},{"rt":null,"stimulus":"\u003cb\u003e\u003ccenter\u003e\u003ch2\u003e\u003cp\u003eTEH\u003c/p\u003e\u003c/h2\u003e\u003c/center\u003e\u003c/b\u003e","key_press":null,"trial_type":"html-keyboard-response","trial_index":9,"time_elapsed":89443,"internal_node_id":"0.0-3.1-1.1","responseType":"finish","participantID":"7c09tuqakpb2k1tnnenhnjm9dlamvxsl","anagrams_seen":["SROT","TEH","KHAOMCM"],"anagrams_answers":["SORT","THE","HAMMOCK"]},{"rt":2602.0799999823794,"response":"0","stimulus":"\u003cp\u003eHow long do you think it will take you to solve this anagram?\u003c/p\u003e","trial_type":"html-slider-response","trial_index":10,"time_elapsed":92046,"internal_node_id":"0.0-3.1-2.1","responseType":"finish","participantID":"7c09tuqakpb2k1tnnenhnjm9dlamvxsl","anagrams_seen":["SROT","TEH","KHAOMCM"],"anagrams_answers":["SORT","THE","HAMMOCK"]},{"rt":2189,"responses":"{\"Q0\":\"the\"}","trial_type":"survey-text","trial_index":11,"time_elapsed":94238,"internal_node_id":"0.0-3.1-3.1-0.1","responseType":"finish","participantID":"7c09tuqakpb2k1tnnenhnjm9dlamvxsl","anagrams_seen":["SROT","TEH","KHAOMCM"],"anagrams_answers":["SORT","THE","HAMMOCK"]},{"rt":3222,"responses":"{\"Q0\":1}","trial_type":"survey-likert","trial_index":12,"time_elapsed":97463,"internal_node_id":"0.0-3.1-4.1-0.1","responseType":"finish","participantID":"7c09tuqakpb2k1tnnenhnjm9dlamvxsl","anagrams_seen":["SROT","TEH","KHAOMCM"],"anagrams_answers":["SORT","THE","HAMMOCK"]},{"rt":1276,"stimulus":"\u003cblockquote\u003e\n  \u003cp\u003eNow an anagram will be shown to you. \u003cbr\u003e\u003cbr\u003e Press 'v' to view the anagram.\u003c/p\u003e\n\u003c/blockquote\u003e","key_press":86,"trial_type":"html-keyboard-response","trial_index":13,"time_elapsed":98745,"internal_node_id":"0.0-3.2-0.2","responseType":"finish","participantID":"7c09tuqakpb2k1tnnenhnjm9dlamvxsl","anagrams_seen":["SROT","TEH","KHAOMCM"],"anagrams_answers":["SORT","THE","HAMMOCK"]},{"rt":null,"stimulus":"\u003cb\u003e\u003ccenter\u003e\u003ch2\u003e\u003cp\u003eKHAOMCM\u003c/p\u003e\u003c/h2\u003e\u003c/center\u003e\u003c/b\u003e","key_press":null,"trial_type":"html-keyboard-response","trial_index":14,"time_elapsed":99247,"internal_node_id":"0.0-3.2-1.2","responseType":"finish","participantID":"7c09tuqakpb2k1tnnenhnjm9dlamvxsl","anagrams_seen":["SROT","TEH","KHAOMCM"],"anagrams_answers":["SORT","THE","HAMMOCK"]},{"rt":6029.474999988452,"response":"0.8","stimulus":"\u003cp\u003eHow long do you think it will take you to solve this anagram?\u003c/p\u003e","trial_type":"html-slider-response","trial_index":15,"time_elapsed":105278,"internal_node_id":"0.0-3.2-2.2","responseType":"finish","participantID":"7c09tuqakpb2k1tnnenhnjm9dlamvxsl","anagrams_seen":["SROT","TEH","KHAOMCM"],"anagrams_answers":["SORT","THE","HAMMOCK"]},{"rt":10791,"responses":"{\"Q0\":\"hammock\"}","trial_type":"survey-text","trial_index":16,"time_elapsed":116071,"internal_node_id":"0.0-3.2-3.2-0.2","responseType":"finish","participantID":"7c09tuqakpb2k1tnnenhnjm9dlamvxsl","anagrams_seen":["SROT","TEH","KHAOMCM"],"anagrams_answers":["SORT","THE","HAMMOCK"]},{"rt":4726,"responses":"{\"Q0\":3}","trial_type":"survey-likert","trial_index":17,"time_elapsed":120799,"internal_node_id":"0.0-3.2-4.2-0.2","responseType":"finish","participantID":"7c09tuqakpb2k1tnnenhnjm9dlamvxsl","anagrams_seen":["SROT","TEH","KHAOMCM"],"anagrams_answers":["SORT","THE","HAMMOCK"]}],"__v":0}
{"_id":{"$oid":"5d4c6c2ed0946a0004f48f2f"},"data":[{"rt":9204,"responses":"{\"Q0\":\" I consent to participate\"}","trial_type":"survey-multi-choice","trial_index":0,"time_elapsed":9214,"internal_node_id":"0.0-0.0","responseType":"finish","participantID":"jc1rzrd5v0wl51dsrq5ptff7yjf4ru52","anagrams_seen":["SROT","BLUK","VLVOO"],"anagrams_answers":["SORT","BULK","VOLVO"]},{"trial_type":"call-function","trial_index":1,"time_elapsed":9222,"internal_node_id":"0.0-1.0","responseType":"finish","participantID":"jc1rzrd5v0wl51dsrq5ptff7yjf4ru52","anagrams_seen":["SROT","BLUK","VLVOO"],"anagrams_answers":["SORT","BULK","VOLVO"]},{"view_history":"[{\"page_index\":0,\"viewing_time\":14544},{\"page_index\":1,\"viewing_time\":17272}]","rt":31818,"trial_type":"instructions","trial_index":2,"time_elapsed":41042,"internal_node_id":"0.0-2.0","responseType":"finish","participantID":"jc1rzrd5v0wl51dsrq5ptff7yjf4ru52","anagrams_seen":["SROT","BLUK","VLVOO"],"anagrams_answers":["SORT","BULK","VOLVO"]},{"rt":6400,"stimulus":"\u003cblockquote\u003e\n  \u003cp\u003eNow an anagram will be shown to you. \u003cbr\u003e\u003cbr\u003e Press 'v' to view the anagram.\u003c/p\u003e\n\u003c/blockquote\u003e","key_press":86,"trial_type":"html-keyboard-response","trial_index":3,"time_elapsed":47444,"internal_node_id":"0.0-3.0-0.0","responseType":"finish","participantID":"jc1rzrd5v0wl51dsrq5ptff7yjf4ru52","anagrams_seen":["SROT","BLUK","VLVOO"],"anagrams_answers":["SORT","BULK","VOLVO"]},{"rt":null,"stimulus":"\u003cb\u003e\u003ccenter\u003e\u003ch2\u003e\u003cp\u003eSROT\u003c/p\u003e\u003c/h2\u003e\u003c/center\u003e\u003c/b\u003e","key_press":null,"trial_type":"html-keyboard-response","trial_index":4,"time_elapsed":47952,"internal_node_id":"0.0-3.0-1.0","responseType":"finish","participantID":"jc1rzrd5v0wl51dsrq5ptff7yjf4ru52","anagrams_seen":["SROT","BLUK","VLVOO"],"anagrams_answers":["SORT","BULK","VOLVO"]},{"rt":6078,"response":"1.8","stimulus":"\u003cp\u003eHow long do you think it will take you to solve this anagram?\u003c/p\u003e","trial_type":"html-slider-response","trial_index":5,"time_elapsed":54033,"internal_node_id":"0.0-3.0-2.0","responseType":"finish","participantID":"jc1rzrd5v0wl51dsrq5ptff7yjf4ru52","anagrams_seen":["SROT","BLUK","VLVOO"],"anagrams_answers":["SORT","BULK","VOLVO"]},{"rt":5060,"responses":"{\"Q0\":\"sort\"}","trial_type":"survey-text","trial_index":6,"time_elapsed":59097,"internal_node_id":"0.0-3.0-3.0-0.0","responseType":"finish","participantID":"jc1rzrd5v0wl51dsrq5ptff7yjf4ru52","anagrams_seen":["SROT","BLUK","VLVOO"],"anagrams_answers":["SORT","BULK","VOLVO"]},{"rt":13302,"responses":"{\"Q0\":5}","trial_type":"survey-likert","trial_index":7,"time_elapsed":72406,"internal_node_id":"0.0-3.0-4.0-0.0","responseType":"finish","participantID":"jc1rzrd5v0wl51dsrq5ptff7yjf4ru52","anagrams_seen":["SROT","BLUK","VLVOO"],"anagrams_answers":["SORT","BULK","VOLVO"]},{"rt":3697,"stimulus":"\u003cblockquote\u003e\n  \u003cp\u003eNow an anagram will be shown to you. \u003cbr\u003e\u003cbr\u003e Press 'v' to view the anagram.\u003c/p\u003e\n\u003c/blockquote\u003e","key_press":86,"trial_type":"html-keyboard-response","trial_index":8,"time_elapsed":76108,"internal_node_id":"0.0-3.1-0.1","responseType":"finish","participantID":"jc1rzrd5v0wl51dsrq5ptff7yjf4ru52","anagrams_seen":["SROT","BLUK","VLVOO"],"anagrams_answers":["SORT","BULK","VOLVO"]},{"rt":null,"stimulus":"\u003cb\u003e\u003ccenter\u003e\u003ch2\u003e\u003cp\u003eBLUK\u003c/p\u003e\u003c/h2\u003e\u003c/center\u003e\u003c/b\u003e","key_press":null,"trial_type":"html-keyboard-response","trial_index":9,"time_elapsed":76618,"internal_node_id":"0.0-3.1-1.1","responseType":"finish","participantID":"jc1rzrd5v0wl51dsrq5ptff7yjf4ru52","anagrams_seen":["SROT","BLUK","VLVOO"],"anagrams_answers":["SORT","BULK","VOLVO"]},{"rt":5517,"response":"1.3","stimulus":"\u003cp\u003eHow long do you think it will take you to solve this anagram?\u003c/p\u003e","trial_type":"html-slider-response","trial_index":10,"time_elapsed":82137,"internal_node_id":"0.0-3.1-2.1","responseType":"finish","participantID":"jc1rzrd5v0wl51dsrq5ptff7yjf4ru52","anagrams_seen":["SROT","BLUK","VLVOO"],"anagrams_answers":["SORT","BULK","VOLVO"]},{"rt":4770,"responses":"{\"Q0\":\"bulk\"}","trial_type":"survey-text","trial_index":11,"time_elapsed":86913,"internal_node_id":"0.0-3.1-3.1-0.1","responseType":"finish","participantID":"jc1rzrd5v0wl51dsrq5ptff7yjf4ru52","anagrams_seen":["SROT","BLUK","VLVOO"],"anagrams_answers":["SORT","BULK","VOLVO"]},{"rt":5589,"responses":"{\"Q0\":4}","trial_type":"survey-likert","trial_index":12,"time_elapsed":92507,"internal_node_id":"0.0-3.1-4.1-0.1","responseType":"finish","participantID":"jc1rzrd5v0wl51dsrq5ptff7yjf4ru52","anagrams_seen":["SROT","BLUK","VLVOO"],"anagrams_answers":["SORT","BULK","VOLVO"]},{"rt":3690,"stimulus":"\u003cblockquote\u003e\n  \u003cp\u003eNow an anagram will be shown to you. \u003cbr\u003e\u003cbr\u003e Press 'v' to view the anagram.\u003c/p\u003e\n\u003c/blockquote\u003e","key_press":86,"trial_type":"html-keyboard-response","trial_index":13,"time_elapsed":96199,"internal_node_id":"0.0-3.2-0.2","responseType":"finish","participantID":"jc1rzrd5v0wl51dsrq5ptff7yjf4ru52","anagrams_seen":["SROT","BLUK","VLVOO"],"anagrams_answers":["SORT","BULK","VOLVO"]},{"rt":null,"stimulus":"\u003cb\u003e\u003ccenter\u003e\u003ch2\u003e\u003cp\u003eVLVOO\u003c/p\u003e\u003c/h2\u003e\u003c/center\u003e\u003c/b\u003e","key_press":null,"trial_type":"html-keyboard-response","trial_index":14,"time_elapsed":96703,"internal_node_id":"0.0-3.2-1.2","responseType":"finish","participantID":"jc1rzrd5v0wl51dsrq5ptff7yjf4ru52","anagrams_seen":["SROT","BLUK","VLVOO"],"anagrams_answers":["SORT","BULK","VOLVO"]},{"rt":4758,"response":"4.1","stimulus":"\u003cp\u003eHow long do you think it will take you to solve this anagram?\u003c/p\u003e","trial_type":"html-slider-response","trial_index":15,"time_elapsed":101465,"internal_node_id":"0.0-3.2-2.2","responseType":"finish","participantID":"jc1rzrd5v0wl51dsrq5ptff7yjf4ru52","anagrams_seen":["SROT","BLUK","VLVOO"],"anagrams_answers":["SORT","BULK","VOLVO"]},{"rt":43957,"responses":"{\"Q0\":\"volvo\"}","trial_type":"survey-text","trial_index":16,"time_elapsed":145425,"internal_node_id":"0.0-3.2-3.2-0.2","responseType":"finish","participantID":"jc1rzrd5v0wl51dsrq5ptff7yjf4ru52","anagrams_seen":["SROT","BLUK","VLVOO"],"anagrams_answers":["SORT","BULK","VOLVO"]},{"rt":3302,"responses":"{\"Q0\":1}","trial_type":"survey-likert","trial_index":17,"time_elapsed":148731,"internal_node_id":"0.0-3.2-4.2-0.2","responseType":"finish","participantID":"jc1rzrd5v0wl51dsrq5ptff7yjf4ru52","anagrams_seen":["SROT","BLUK","VLVOO"],"anagrams_answers":["SORT","BULK","VOLVO"]}],"__v":0}
{"_id":{"$oid":"5d4c6c4ad0946a0004f48f30"},"data":{"responseType":"start","participantID":"33s4xm1gr7t23bdhyh40enetbbxh3wpy","anagrams_seen":["VLVOO","DALRBEU","IORCNAG"],"anagrams_answers":["VOLVO","DURABLE","ORGANIC"]},"__v":0}
{"_id":{"$oid":"5d4c6c5fd0946a0004f48f31"},"data":[{"rt":6220,"responses":"{\"Q0\":\" I consent to participate\"}","trial_type":"survey-multi-choice","trial_index":0,"time_elapsed":6223,"internal_node_id":"0.0-0.0","responseType":"finish","participantID":"xsa8v1kuxaortdaadyx5aluc0atmcxjm","anagrams_seen":["BLUK","PITN","HNATUYG"],"anagrams_answers":["BULK","PINT","NAUGHTY"]},{"trial_type":"call-function","trial_index":1,"time_elapsed":6237,"internal_node_id":"0.0-1.0","responseType":"finish","participantID":"xsa8v1kuxaortdaadyx5aluc0atmcxjm","anagrams_seen":["BLUK","PITN","HNATUYG"],"anagrams_answers":["BULK","PINT","NAUGHTY"]},{"view_history":"[{\"page_index\":0,\"viewing_time\":4317},{\"page_index\":1,\"viewing_time\":3837}]","rt":8154,"trial_type":"instructions","trial_index":2,"time_elapsed":14392,"internal_node_id":"0.0-2.0","responseType":"finish","participantID":"xsa8v1kuxaortdaadyx5aluc0atmcxjm","anagrams_seen":["BLUK","PITN","HNATUYG"],"anagrams_answers":["BULK","PINT","NAUGHTY"]},{"rt":2152,"stimulus":"\u003cblockquote\u003e\n  \u003cp\u003eNow an anagram will be shown to you. \u003cbr\u003e\u003cbr\u003e Press 'v' to view the anagram.\u003c/p\u003e\n\u003c/blockquote\u003e","key_press":86,"trial_type":"html-keyboard-response","trial_index":3,"time_elapsed":16545,"internal_node_id":"0.0-3.0-0.0","responseType":"finish","participantID":"xsa8v1kuxaortdaadyx5aluc0atmcxjm","anagrams_seen":["BLUK","PITN","HNATUYG"],"anagrams_answers":["BULK","PINT","NAUGHTY"]},{"rt":null,"stimulus":"\u003cb\u003e\u003ccenter\u003e\u003ch2\u003e\u003cp\u003eBLUK\u003c/p\u003e\u003c/h2\u003e\u003c/center\u003e\u003c/b\u003e","key_press":null,"trial_type":"html-keyboard-response","trial_index":4,"time_elapsed":17049,"internal_node_id":"0.0-3.0-1.0","responseType":"finish","participantID":"xsa8v1kuxaortdaadyx5aluc0atmcxjm","anagrams_seen":["BLUK","PITN","HNATUYG"],"anagrams_answers":["BULK","PINT","NAUGHTY"]},{"rt":6698.734999998123,"response":"2.1","stimulus":"\u003cp\u003eHow long do you think it will take you to solve this anagram?\u003c/p\u003e","trial_type":"html-slider-response","trial_index":5,"time_elapsed":23749,"internal_node_id":"0.0-3.0-2.0","responseType":"finish","participantID":"xsa8v1kuxaortdaadyx5aluc0atmcxjm","anagrams_seen":["BLUK","PITN","HNATUYG"],"anagrams_answers":["BULK","PINT","NAUGHTY"]},{"rt":6454,"responses":"{\"Q0\":\"Bulk\"}","trial_type":"survey-text","trial_index":6,"time_elapsed":30204,"internal_node_id":"0.0-3.0-3.0-0.0","responseType":"finish","participantID":"xsa8v1kuxaortdaadyx5aluc0atmcxjm","anagrams_seen":["BLUK","PITN","HNATUYG"],"anagrams_answers":["BULK","PINT","NAUGHTY"]},{"rt":15417,"responses":"{\"Q0\":4}","trial_type":"survey-likert","trial_index":7,"time_elapsed":45622,"internal_node_id":"0.0-3.0-4.0-0.0","responseType":"finish","participantID":"xsa8v1kuxaortdaadyx5aluc0atmcxjm","anagrams_seen":["BLUK","PITN","HNATUYG"],"anagrams_answers":["BULK","PINT","NAUGHTY"]},{"rt":1413,"stimulus":"\u003cblockquote\u003e\n  \u003cp\u003eNow an anagram will be shown to you. \u003cbr\u003e\u003cbr\u003e Press 'v' to view the anagram.\u003c/p\u003e\n\u003c/blockquote\u003e","key_press":86,"trial_type":"html-keyboard-response","trial_index":8,"time_elapsed":47049,"internal_node_id":"0.0-3.1-0.1","responseType":"finish","participantID":"xsa8v1kuxaortdaadyx5aluc0atmcxjm","anagrams_seen":["BLUK","PITN","HNATUYG"],"anagrams_answers":["BULK","PINT","NAUGHTY"]},{"rt":null,"stimulus":"\u003cb\u003e\u003ccenter\u003e\u003ch2\u003e\u003cp\u003ePITN\u003c/p\u003e\u003c/h2\u003e\u003c/center\u003e\u003c/b\u003e","key_press":null,"trial_type":"html-keyboard-response","trial_index":9,"time_elapsed":47549,"internal_node_id":"0.0-3.1-1.1","responseType":"finish","participantID":"xsa8v1kuxaortdaadyx5aluc0atmcxjm","anagrams_seen":["BLUK","PITN","HNATUYG"],"anagrams_answers":["BULK","PINT","NAUGHTY"]},{"rt":14888.505000002624,"response":"1.1","stimulus":"\u003cp\u003eHow long do you think it will take you to solve this anagram?\u003c/p\u003e","trial_type":"html-slider-response","trial_index":10,"time_elapsed":62439,"internal_node_id":"0.0-3.1-2.1","responseType":"finish","participantID":"xsa8v1kuxaortdaadyx5aluc0atmcxjm","anagrams_seen":["BLUK","PITN","HNATUYG"],"anagrams_answers":["BULK","PINT","NAUGHTY"]},{"rt":32281,"responses":"{\"Q0\":\"Pint\"}","trial_type":"survey-text","trial_index":11,"time_elapsed":94720,"internal_node_id":"0.0-3.1-3.1-0.1","responseType":"finish","participantID":"xsa8v1kuxaortdaadyx5aluc0atmcxjm","anagrams_seen":["BLUK","PITN","HNATUYG"],"anagrams_answers":["BULK","PINT","NAUGHTY"]},{"rt":5657,"responses":"{\"Q0\":6}","trial_type":"survey-likert","trial_index":12,"time_elapsed":100378,"internal_node_id":"0.0-3.1-4.1-0.1","responseType":"finish","participantID":"xsa8v1kuxaortdaadyx5aluc0atmcxjm","anagrams_seen":["BLUK","PITN","HNATUYG"],"anagrams_answers":["BULK","PINT","NAUGHTY"]},{"rt":1290,"stimulus":"\u003cblockquote\u003e\n  \u003cp\u003eNow an anagram will be shown to you. \u003cbr\u003e\u003cbr\u003e Press 'v' to view the anagram.\u003c/p\u003e\n\u003c/blockquote\u003e","key_press":86,"trial_type":"html-keyboard-response","trial_index":13,"time_elapsed":101680,"internal_node_id":"0.0-3.2-0.2","responseType":"finish","participantID":"xsa8v1kuxaortdaadyx5aluc0atmcxjm","anagrams_seen":["BLUK","PITN","HNATUYG"],"anagrams_answers":["BULK","PINT","NAUGHTY"]},{"rt":null,"stimulus":"\u003cb\u003e\u003ccenter\u003e\u003ch2\u003e\u003cp\u003eHNATUYG\u003c/p\u003e\u003c/h2\u003e\u003c/center\u003e\u003c/b\u003e","key_press":null,"trial_type":"html-keyboard-response","trial_index":14,"time_elapsed":102181,"internal_node_id":"0.0-3.2-1.2","responseType":"finish","participantID":"xsa8v1kuxaortdaadyx5aluc0atmcxjm","anagrams_seen":["BLUK","PITN","HNATUYG"],"anagrams_answers":["BULK","PINT","NAUGHTY"]},{"rt":2940.790000000561,"response":"5","stimulus":"\u003cp\u003eHow long do you think it will take you to solve this anagram?\u003c/p\u003e","trial_type":"html-slider-response","trial_index":15,"time_elapsed":105122,"internal_node_id":"0.0-3.2-2.2","responseType":"finish","participantID":"xsa8v1kuxaortdaadyx5aluc0atmcxjm","anagrams_seen":["BLUK","PITN","HNATUYG"],"anagrams_answers":["BULK","PINT","NAUGHTY"]},{"rt":34714,"responses":"{\"Q0\":\"naughty \"}","trial_type":"survey-text","trial_index":16,"time_elapsed":139837,"internal_node_id":"0.0-3.2-3.2-0.2","responseType":"finish","participantID":"xsa8v1kuxaortdaadyx5aluc0atmcxjm","anagrams_seen":["BLUK","PITN","HNATUYG"],"anagrams_answers":["BULK","PINT","NAUGHTY"]},{"rt":3730,"responses":"{\"Q0\":6}","trial_type":"survey-likert","trial_index":17,"time_elapsed":143568,"internal_node_id":"0.0-3.2-4.2-0.2","responseType":"finish","participantID":"xsa8v1kuxaortdaadyx5aluc0atmcxjm","anagrams_seen":["BLUK","PITN","HNATUYG"],"anagrams_answers":["BULK","PINT","NAUGHTY"]}],"__v":0}
{"_id":{"$oid":"5d4c6c64d0946a0004f48f32"},"data":[{"rt":4408,"responses":"{\"Q0\":\" I consent to participate\"}","trial_type":"survey-multi-choice","trial_index":0,"time_elapsed":4413,"internal_node_id":"0.0-0.0","responseType":"finish","participantID":"s9vyqn5va21r32l8mg2aoxh43akr3ktc","anagrams_seen":["TEH","PITN","KHAOMCM"],"anagrams_answers":["THE","PINT","HAMMOCK"]},{"trial_type":"call-function","trial_index":1,"time_elapsed":4417,"internal_node_id":"0.0-1.0","responseType":"finish","participantID":"s9vyqn5va21r32l8mg2aoxh43akr3ktc","anagrams_seen":["TEH","PITN","KHAOMCM"],"anagrams_answers":["THE","PINT","HAMMOCK"]},{"view_history":"[{\"page_index\":0,\"viewing_time\":67591},{\"page_index\":1,\"viewing_time\":3335}]","rt":70927,"trial_type":"instructions","trial_index":2,"time_elapsed":75345,"internal_node_id":"0.0-2.0","responseType":"finish","participantID":"s9vyqn5va21r32l8mg2aoxh43akr3ktc","anagrams_seen":["TEH","PITN","KHAOMCM"],"anagrams_answers":["THE","PINT","HAMMOCK"]},{"rt":1441,"stimulus":"\u003cblockquote\u003e\n  \u003cp\u003eNow an anagram will be shown to you. \u003cbr\u003e\u003cbr\u003e Press 'v' to view the anagram.\u003c/p\u003e\n\u003c/blockquote\u003e","key_press":86,"trial_type":"html-keyboard-response","trial_index":3,"time_elapsed":76788,"internal_node_id":"0.0-3.0-0.0","responseType":"finish","participantID":"s9vyqn5va21r32l8mg2aoxh43akr3ktc","anagrams_seen":["TEH","PITN","KHAOMCM"],"anagrams_answers":["THE","PINT","HAMMOCK"]},{"rt":null,"stimulus":"\u003cb\u003e\u003ccenter\u003e\u003ch2\u003e\u003cp\u003eTEH\u003c/p\u003e\u003c/h2\u003e\u003c/center\u003e\u003c/b\u003e","key_press":null,"trial_type":"html-keyboard-response","trial_index":4,"time_elapsed":77292,"internal_node_id":"0.0-3.0-1.0","responseType":"finish","participantID":"s9vyqn5va21r32l8mg2aoxh43akr3ktc","anagrams_seen":["TEH","PITN","KHAOMCM"],"anagrams_answers":["THE","PINT","HAMMOCK"]},{"rt":3580.085000001418,"response":"6","stimulus":"\u003cp\u003eHow long do you think it will take you to solve this anagram?\u003c/p\u003e","trial_type":"html-slider-response","trial_index":5,"time_elapsed":80874,"internal_node_id":"0.0-3.0-2.0","responseType":"finish","participantID":"s9vyqn5va21r32l8mg2aoxh43akr3ktc","anagrams_seen":["TEH","PITN","KHAOMCM"],"anagrams_answers":["THE","PINT","HAMMOCK"]},{"rt":2533,"responses":"{\"Q0\":\"the\"}","trial_type":"survey-text","trial_index":6,"time_elapsed":83410,"internal_node_id":"0.0-3.0-3.0-0.0","responseType":"finish","participantID":"s9vyqn5va21r32l8mg2aoxh43akr3ktc","anagrams_seen":["TEH","PITN","KHAOMCM"],"anagrams_answers":["THE","PINT","HAMMOCK"]},{"rt":9328,"responses":"{\"Q0\":6}","trial_type":"survey-likert","trial_index":7,"time_elapsed":92740,"internal_node_id":"0.0-3.0-4.0-0.0","responseType":"finish","participantID":"s9vyqn5va21r32l8mg2aoxh43akr3ktc","anagrams_seen":["TEH","PITN","KHAOMCM"],"anagrams_answers":["THE","PINT","HAMMOCK"]},{"rt":1466,"stimulus":"\u003cblockquote\u003e\n  \u003cp\u003eNow an anagram will be shown to you. \u003cbr\u003e\u003cbr\u003e Press 'v' to view the anagram.\u003c/p\u003e\n\u003c/blockquote\u003e","key_press":86,"trial_type":"html-keyboard-response","trial_index":8,"time_elapsed":94209,"internal_node_id":"0.0-3.1-0.1","responseType":"finish","participantID":"s9vyqn5va21r32l8mg2aoxh43akr3ktc","anagrams_seen":["TEH","PITN","KHAOMCM"],"anagrams_answers":["THE","PINT","HAMMOCK"]},{"rt":null,"stimulus":"\u003cb\u003e\u003ccenter\u003e\u003ch2\u003e\u003cp\u003ePITN\u003c/p\u003e\u003c/h2\u003e\u003c/center\u003e\u003c/b\u003e","key_press":null,"trial_type":"html-keyboard-response","trial_index":9,"time_elapsed":94711,"internal_node_id":"0.0-3.1-1.1","responseType":"finish","participantID":"s9vyqn5va21r32l8mg2aoxh43akr3ktc","anagrams_seen":["TEH","PITN","KHAOMCM"],"anagrams_answers":["THE","PINT","HAMMOCK"]},{"rt":2931.7949999967823,"response":"0","stimulus":"\u003cp\u003eHow long do you think it will take you to solve this anagram?\u003c/p\u003e","trial_type":"html-slider-response","trial_index":10,"time_elapsed":97644,"internal_node_id":"0.0-3.1-2.1","responseType":"finish","participantID":"s9vyqn5va21r32l8mg2aoxh43akr3ktc","anagrams_seen":["TEH","PITN","KHAOMCM"],"anagrams_answers":["THE","PINT","HAMMOCK"]},{"rt":3453,"responses":"{\"Q0\":\"pint\"}","trial_type":"survey-text","trial_index":11,"time_elapsed":101098,"internal_node_id":"0.0-3.1-3.1-0.1","responseType":"finish","participantID":"s9vyqn5va21r32l8mg2aoxh43akr3ktc","anagrams_seen":["TEH","PITN","KHAOMCM"],"anagrams_answers":["THE","PINT","HAMMOCK"]},{"rt":3803,"responses":"{\"Q0\":6}","trial_type":"survey-likert","trial_index":12,"time_elapsed":104903,"internal_node_id":"0.0-3.1-4.1-0.1","responseType":"finish","participantID":"s9vyqn5va21r32l8mg2aoxh43akr3ktc","anagrams_seen":["TEH","PITN","KHAOMCM"],"anagrams_answers":["THE","PINT","HAMMOCK"]},{"rt":1214,"stimulus":"\u003cblockquote\u003e\n  \u003cp\u003eNow an anagram will be shown to you. \u003cbr\u003e\u003cbr\u003e Press 'v' to view the anagram.\u003c/p\u003e\n\u003c/blockquote\u003e","key_press":86,"trial_type":"html-keyboard-response","trial_index":13,"time_elapsed":106119,"internal_node_id":"0.0-3.2-0.2","responseType":"finish","participantID":"s9vyqn5va21r32l8mg2aoxh43akr3ktc","anagrams_seen":["TEH","PITN","KHAOMCM"],"anagrams_answers":["THE","PINT","HAMMOCK"]},{"rt":null,"stimulus":"\u003cb\u003e\u003ccenter\u003e\u003ch2\u003e\u003cp\u003eKHAOMCM\u003c/p\u003e\u003c/h2\u003e\u003c/center\u003e\u003c/b\u003e","key_press":null,"trial_type":"html-keyboard-response","trial_index":14,"time_elapsed":106621,"internal_node_id":"0.0-3.2-1.2","responseType":"finish","participantID":"s9vyqn5va21r32l8mg2aoxh43akr3ktc","anagrams_seen":["TEH","PITN","KHAOMCM"],"anagrams_answers":["THE","PINT","HAMMOCK"]},{"rt":3042.65000000305,"response":"6","stimulus":"\u003cp\u003eHow long do you think it will take you to solve this anagram?\u003c/p\u003e","trial_type":"html-slider-response","trial_index":15,"time_elapsed":109665,"internal_node_id":"0.0-3.2-2.2","responseType":"finish","participantID":"s9vyqn5va21r32l8mg2aoxh43akr3ktc","anagrams_seen":["TEH","PITN","KHAOMCM"],"anagrams_answers":["THE","PINT","HAMMOCK"]},{"rt":12585,"responses":"{\"Q0\":\"NEXT\"}","trial_type":"survey-text","trial_index":16,"time_elapsed":122252,"internal_node_id":"0.0-3.2-3.2-0.2","responseType":"finish","participantID":"s9vyqn5va21r32l8mg2aoxh43akr3ktc","anagrams_seen":["TEH","PITN","KHAOMCM"],"anagrams_answers":["THE","PINT","HAMMOCK"]},{"rt":3081,"responses":"{\"Q0\":0}","trial_type":"survey-likert","trial_index":17,"time_elapsed":125335,"internal_node_id":"0.0-3.2-4.2-0.2","responseType":"finish","participantID":"s9vyqn5va21r32l8mg2aoxh43akr3ktc","anagrams_seen":["TEH","PITN","KHAOMCM"],"anagrams_answers":["THE","PINT","HAMMOCK"]}],"__v":0}
{"_id":{"$oid":"5d4c6c68d0946a0004f48f33"},"data":[{"rt":5892,"responses":"{\"Q0\":\" I consent to participate\"}","trial_type":"survey-multi-choice","trial_index":0,"time_elapsed":5912,"internal_node_id":"0.0-0.0","responseType":"finish","participantID":"5zpzxzbjp1af2r58n92ynr6v3usxdtqd","anagrams_seen":["HNATUYG","TEH","IORCNAG"],"anagrams_answers":["NAUGHTY","THE","ORGANIC"]},{"trial_type":"call-function","trial_index":1,"time_elapsed":5923,"internal_node_id":"0.0-1.0","responseType":"finish","participantID":"5zpzxzbjp1af2r58n92ynr6v3usxdtqd","anagrams_seen":["HNATUYG","TEH","IORCNAG"],"anagrams_answers":["NAUGHTY","THE","ORGANIC"]},{"view_history":"[{\"page_index\":0,\"viewing_time\":12518},{\"page_index\":1,\"viewing_time\":12396}]","rt":24916,"trial_type":"instructions","trial_index":2,"time_elapsed":30841,"internal_node_id":"0.0-2.0","responseType":"finish","participantID":"5zpzxzbjp1af2r58n92ynr6v3usxdtqd","anagrams_seen":["HNATUYG","TEH","IORCNAG"],"anagrams_answers":["NAUGHTY","THE","ORGANIC"]},{"rt":3218,"stimulus":"\u003cblockquote\u003e\n  \u003cp\u003eNow an anagram will be shown to you. \u003cbr\u003e\u003cbr\u003e Press 'v' to view the anagram.\u003c/p\u003e\n\u003c/blockquote\u003e","key_press":86,"trial_type":"html-keyboard-response","trial_index":3,"time_elapsed":34062,"internal_node_id":"0.0-3.0-0.0","responseType":"finish","participantID":"5zpzxzbjp1af2r58n92ynr6v3usxdtqd","anagrams_seen":["HNATUYG","TEH","IORCNAG"],"anagrams_answers":["NAUGHTY","THE","ORGANIC"]},{"rt":null,"stimulus":"\u003cb\u003e\u003ccenter\u003e\u003ch2\u003e\u003cp\u003eHNATUYG\u003c/p\u003e\u003c/h2\u003e\u003c/center\u003e\u003c/b\u003e","key_press":null,"trial_type":"html-keyboard-response","trial_index":4,"time_elapsed":34572,"internal_node_id":"0.0-3.0-1.0","responseType":"finish","participantID":"5zpzxzbjp1af2r58n92ynr6v3usxdtqd","anagrams_seen":["HNATUYG","TEH","IORCNAG"],"anagrams_answers":["NAUGHTY","THE","ORGANIC"]},{"rt":6353.929999982938,"response":"0.8","stimulus":"\u003cp\u003eHow long do you think it will take you to solve this anagram?\u003c/p\u003e","trial_type":"html-slider-response","trial_index":5,"time_elapsed":40932,"internal_node_id":"0.0-3.0-2.0","responseType":"finish","participantID":"5zpzxzbjp1af2r58n92ynr6v3usxdtqd","anagrams_seen":["HNATUYG","TEH","IORCNAG"],"anagrams_answers":["NAUGHTY","THE","ORGANIC"]},{"rt":44310,"responses":"{\"Q0\":\"NEXT\"}","trial_type":"survey-text","trial_index":6,"time_elapsed":85246,"internal_node_id":"0.0-3.0-3.0-0.0","responseType":"finish","participantID":"5zpzxzbjp1af2r58n92ynr6v3usxdtqd","anagrams_seen":["HNATUYG","TEH","IORCNAG"],"anagrams_answers":["NAUGHTY","THE","ORGANIC"]},{"rt":9705,"responses":"{\"Q0\":0}","trial_type":"survey-likert","trial_index":7,"time_elapsed":94958,"internal_node_id":"0.0-3.0-4.0-0.0","responseType":"finish","participantID":"5zpzxzbjp1af2r58n92ynr6v3usxdtqd","anagrams_seen":["HNATUYG","TEH","IORCNAG"],"anagrams_answers":["NAUGHTY","THE","ORGANIC"]},{"rt":1695,"stimulus":"\u003cblockquote\u003e\n  \u003cp\u003eNow an anagram will be shown to you. \u003cbr\u003e\u003cbr\u003e Press 'v' to view the anagram.\u003c/p\u003e\n\u003c/blockquote\u003e","key_press":86,"trial_type":"html-keyboard-response","trial_index":8,"time_elapsed":96659,"internal_node_id":"0.0-3.1-0.1","responseType":"finish","participantID":"5zpzxzbjp1af2r58n92ynr6v3usxdtqd","anagrams_seen":["HNATUYG","TEH","IORCNAG"],"anagrams_answers":["NAUGHTY","THE","ORGANIC"]},{"rt":null,"stimulus":"\u003cb\u003e\u003ccenter\u003e\u003ch2\u003e\u003cp\u003eTEH\u003c/p\u003e\u003c/h2\u003e\u003c/center\u003e\u003c/b\u003e","key_press":null,"trial_type":"html-keyboard-response","trial_index":9,"time_elapsed":97161,"internal_node_id":"0.0-3.1-1.1","responseType":"finish","participantID":"5zpzxzbjp1af2r58n92ynr6v3usxdtqd","anagrams_seen":["HNATUYG","TEH","IORCNAG"],"anagrams_answers":["NAUGHTY","THE","ORGANIC"]},{"rt":5970.459999982268,"response":"0.2","stimulus":"\u003cp\u003eHow long do you think it will take you to solve this anagram?\u003c/p\u003e","trial_type":"html-slider-response","trial_index":10,"time_elapsed":103135,"internal_node_id":"0.0-3.1-2.1","responseType":"finish","participantID":"5zpzxzbjp1af2r58n92ynr6v3usxdtqd","anagrams_seen":["HNATUYG","TEH","IORCNAG"],"anagrams_answers":["NAUGHTY","THE","ORGANIC"]},{"rt":3382,"responses":"{\"Q0\":\"THE\"}","trial_type":"survey-text","trial_index":11,"time_elapsed":106520,"internal_node_id":"0.0-3.1-3.1-0.1","responseType":"finish","participantID":"5zpzxzbjp1af2r58n92ynr6v3usxdtqd","anagrams_seen":["HNATUYG","TEH","IORCNAG"],"anagrams_answers":["NAUGHTY","THE","ORGANIC"]},{"rt":2664,"responses":"{\"Q0\":0}","trial_type":"survey-likert","trial_index":12,"time_elapsed":109188,"internal_node_id":"0.0-3.1-4.1-0.1","responseType":"finish","participantID":"5zpzxzbjp1af2r58n92ynr6v3usxdtqd","anagrams_seen":["HNATUYG","TEH","IORCNAG"],"anagrams_answers":["NAUGHTY","THE","ORGANIC"]},{"rt":1450,"stimulus":"\u003cblockquote\u003e\n  \u003cp\u003eNow an anagram will be shown to you. \u003cbr\u003e\u003cbr\u003e Press 'v' to view the anagram.\u003c/p\u003e\n\u003c/blockquote\u003e","key_press":86,"trial_type":"html-keyboard-response","trial_index":13,"time_elapsed":110641,"internal_node_id":"0.0-3.2-0.2","responseType":"finish","participantID":"5zpzxzbjp1af2r58n92ynr6v3usxdtqd","anagrams_seen":["HNATUYG","TEH","IORCNAG"],"anagrams_answers":["NAUGHTY","THE","ORGANIC"]},{"rt":null,"stimulus":"\u003cb\u003e\u003ccenter\u003e\u003ch2\u003e\u003cp\u003eIORCNAG\u003c/p\u003e\u003c/h2\u003e\u003c/center\u003e\u003c/b\u003e","key_press":null,"trial_type":"html-keyboard-response","trial_index":14,"time_elapsed":111143,"internal_node_id":"0.0-3.2-1.2","responseType":"finish","participantID":"5zpzxzbjp1af2r58n92ynr6v3usxdtqd","anagrams_seen":["HNATUYG","TEH","IORCNAG"],"anagrams_answers":["NAUGHTY","THE","ORGANIC"]},{"rt":4577.67500000773,"response":"2.5","stimulus":"\u003cp\u003eHow long do you think it will take you to solve this anagram?\u003c/p\u003e","trial_type":"html-slider-response","trial_index":15,"time_elapsed":115724,"internal_node_id":"0.0-3.2-2.2","responseType":"finish","participantID":"5zpzxzbjp1af2r58n92ynr6v3usxdtqd","anagrams_seen":["HNATUYG","TEH","IORCNAG"],"anagrams_answers":["NAUGHTY","THE","ORGANIC"]},{"rt":59869,"responses":"{\"Q0\":\"NEXT\"}","trial_type":"survey-text","trial_index":16,"time_elapsed":175597,"internal_node_id":"0.0-3.2-3.2-0.2","responseType":"finish","participantID":"5zpzxzbjp1af2r58n92ynr6v3usxdtqd","anagrams_seen":["HNATUYG","TEH","IORCNAG"],"anagrams_answers":["NAUGHTY","THE","ORGANIC"]},{"rt":3078,"responses":"{\"Q0\":0}","trial_type":"survey-likert","trial_index":17,"time_elapsed":178680,"internal_node_id":"0.0-3.2-4.2-0.2","responseType":"finish","participantID":"5zpzxzbjp1af2r58n92ynr6v3usxdtqd","anagrams_seen":["HNATUYG","TEH","IORCNAG"],"anagrams_answers":["NAUGHTY","THE","ORGANIC"]}],"__v":0}
{"_id":{"$oid":"5d4c6c7fd0946a0004f48f34"},"data":{"responseType":"start","participantID":"8rd6cdox5lhxarlgjtgqsd3u8aeje3nf","anagrams_seen":["IORCNAG","PITN","DALRBEU"],"anagrams_answers":["ORGANIC","PINT","DURABLE"]},"__v":0}
{"_id":{"$oid":"5d4c6c84d0946a0004f48f35"},"data":[{"rt":9812,"responses":"{\"Q0\":\" I consent to participate\"}","trial_type":"survey-multi-choice","trial_index":0,"time_elapsed":9829,"internal_node_id":"0.0-0.0","responseType":"finish","participantID":"d8feydcb8hjrxagkz4450yw6esuyggvq","anagrams_seen":["SONW","KHAOMCM","SROT"],"anagrams_answers":["SNOW","HAMMOCK","SORT"]},{"trial_type":"call-function","trial_index":1,"time_elapsed":9841,"internal_node_id":"0.0-1.0","responseType":"finish","participantID":"d8feydcb8hjrxagkz4450yw6esuyggvq","anagrams_seen":["SONW","KHAOMCM","SROT"],"anagrams_answers":["SNOW","HAMMOCK","SORT"]},{"view_history":"[{\"page_index\":0,\"viewing_time\":9394},{\"page_index\":1,\"viewing_time\":12097}]","rt":21492,"trial_type":"instructions","trial_index":2,"time_elapsed":31335,"internal_node_id":"0.0-2.0","responseType":"finish","participantID":"d8feydcb8hjrxagkz4450yw6esuyggvq","anagrams_seen":["SONW","KHAOMCM","SROT"],"anagrams_answers":["SNOW","HAMMOCK","SORT"]},{"rt":3030,"stimulus":"\u003cblockquote\u003e\n  \u003cp\u003eNow an anagram will be shown to you. \u003cbr\u003e\u003cbr\u003e Press 'v' to view the anagram.\u003c/p\u003e\n\u003c/blockquote\u003e","key_press":86,"trial_type":"html-keyboard-response","trial_index":3,"time_elapsed":34372,"internal_node_id":"0.0-3.0-0.0","responseType":"finish","participantID":"d8feydcb8hjrxagkz4450yw6esuyggvq","anagrams_seen":["SONW","KHAOMCM","SROT"],"anagrams_answers":["SNOW","HAMMOCK","SORT"]},{"rt":null,"stimulus":"\u003cb\u003e\u003ccenter\u003e\u003ch2\u003e\u003cp\u003eSONW\u003c/p\u003e\u003c/h2\u003e\u003c/center\u003e\u003c/b\u003e","key_press":null,"trial_type":"html-keyboard-response","trial_index":4,"time_elapsed":34878,"internal_node_id":"0.0-3.0-1.0","responseType":"finish","participantID":"d8feydcb8hjrxagkz4450yw6esuyggvq","anagrams_seen":["SONW","KHAOMCM","SROT"],"anagrams_answers":["SNOW","HAMMOCK","SORT"]},{"rt":8390.580000006594,"response":"0","stimulus":"\u003cp\u003eHow long do you think it will take you to solve this anagram?\u003c/p\u003e","trial_type":"html-slider-response","trial_index":5,"time_elapsed":43275,"internal_node_id":"0.0-3.0-2.0","responseType":"finish","participantID":"d8feydcb8hjrxagkz4450yw6esuyggvq","anagrams_seen":["SONW","KHAOMCM","SROT"],"anagrams_answers":["SNOW","HAMMOCK","SORT"]},{"rt":5038,"responses":"{\"Q0\":\"snow\"}","trial_type":"survey-text","trial_index":6,"time_elapsed":48317,"internal_node_id":"0.0-3.0-3.0-0.0","responseType":"finish","participantID":"d8feydcb8hjrxagkz4450yw6esuyggvq","anagrams_seen":["SONW","KHAOMCM","SROT"],"anagrams_answers":["SNOW","HAMMOCK","SORT"]},{"rt":14636,"responses":"{\"Q0\":0}","trial_type":"survey-likert","trial_index":7,"time_elapsed":62961,"internal_node_id":"0.0-3.0-4.0-0.0","responseType":"finish","participantID":"d8feydcb8hjrxagkz4450yw6esuyggvq","anagrams_seen":["SONW","KHAOMCM","SROT"],"anagrams_answers":["SNOW","HAMMOCK","SORT"]},{"rt":2393,"stimulus":"\u003cblockquote\u003e\n  \u003cp\u003eNow an anagram will be shown to you. \u003cbr\u003e\u003cbr\u003e Press 'v' to view the anagram.\u003c/p\u003e\n\u003c/blockquote\u003e","key_press":86,"trial_type":"html-keyboard-response","trial_index":8,"time_elapsed":65360,"internal_node_id":"0.0-3.1-0.1","responseType":"finish","participantID":"d8feydcb8hjrxagkz4450yw6esuyggvq","anagrams_seen":["SONW","KHAOMCM","SROT"],"anagrams_answers":["SNOW","HAMMOCK","SORT"]},{"rt":null,"stimulus":"\u003cb\u003e\u003ccenter\u003e\u003ch2\u003e\u003cp\u003eKHAOMCM\u003c/p\u003e\u003c/h2\u003e\u003c/center\u003e\u003c/b\u003e","key_press":null,"trial_type":"html-keyboard-response","trial_index":9,"time_elapsed":65889,"internal_node_id":"0.0-3.1-1.1","responseType":"finish","participantID":"d8feydcb8hjrxagkz4450yw6esuyggvq","anagrams_seen":["SONW","KHAOMCM","SROT"],"anagrams_answers":["SNOW","HAMMOCK","SORT"]},{"rt":5253.640000009909,"response":"2.3","stimulus":"\u003cp\u003eHow long do you think it will take you to solve this anagram?\u003c/p\u003e","trial_type":"html-slider-response","trial_index":10,"time_elapsed":71151,"internal_node_id":"0.0-3.1-2.1","responseType":"finish","participantID":"d8feydcb8hjrxagkz4450yw6esuyggvq","anagrams_seen":["SONW","KHAOMCM","SROT"],"anagrams_answers":["SNOW","HAMMOCK","SORT"]},{"rt":42839,"responses":"{\"Q0\":\"NEXT\"}","trial_type":"survey-text","trial_index":11,"time_elapsed":113994,"internal_node_id":"0.0-3.1-3.1-0.1","responseType":"finish","participantID":"d8feydcb8hjrxagkz4450yw6esuyggvq","anagrams_seen":["SONW","KHAOMCM","SROT"],"anagrams_answers":["SNOW","HAMMOCK","SORT"]},{"rt":3835,"responses":"{\"Q0\":0}","trial_type":"survey-likert","trial_index":12,"time_elapsed":117836,"internal_node_id":"0.0-3.1-4.1-0.1","responseType":"finish","participantID":"d8feydcb8hjrxagkz4450yw6esuyggvq","anagrams_seen":["SONW","KHAOMCM","SROT"],"anagrams_answers":["SNOW","HAMMOCK","SORT"]},{"rt":1659,"stimulus":"\u003cblockquote\u003e\n  \u003cp\u003eNow an anagram will be shown to you. \u003cbr\u003e\u003cbr\u003e Press 'v' to view the anagram.\u003c/p\u003e\n\u003c/blockquote\u003e","key_press":86,"trial_type":"html-keyboard-response","trial_index":13,"time_elapsed":119498,"internal_node_id":"0.0-3.2-0.2","responseType":"finish","participantID":"d8feydcb8hjrxagkz4450yw6esuyggvq","anagrams_seen":["SONW","KHAOMCM","SROT"],"anagrams_answers":["SNOW","HAMMOCK","SORT"]},{"rt":null,"stimulus":"\u003cb\u003e\u003ccenter\u003e\u003ch2\u003e\u003cp\u003eSROT\u003c/p\u003e\u003c/h2\u003e\u003c/center\u003e\u003c/b\u003e","key_press":null,"trial_type":"html-keyboard-response","trial_index":14,"time_elapsed":120005,"internal_node_id":"0.0-3.2-1.2","responseType":"finish","participantID":"d8feydcb8hjrxagkz4450yw6esuyggvq","anagrams_seen":["SONW","KHAOMCM","SROT"],"anagrams_answers":["SNOW","HAMMOCK","SORT"]},{"rt":4657.100000011269,"response":"0","stimulus":"\u003cp\u003eHow long do you think it will take you to solve this anagram?\u003c/p\u003e","trial_type":"html-slider-response","trial_index":15,"time_elapsed":124667,"internal_node_id":"0.0-3.2-2.2","responseType":"finish","participantID":"d8feydcb8hjrxagkz4450yw6esuyggvq","anagrams_seen":["SONW","KHAOMCM","SROT"],"anagrams_answers":["SNOW","HAMMOCK","SORT"]},{"rt":4797,"responses":"{\"Q0\":\"rots\"}","trial_type":"survey-text","trial_index":16,"time_elapsed":129470,"internal_node_id":"0.0-3.2-3.2-0.2","responseType":"finish","participantID":"d8feydcb8hjrxagkz4450yw6esuyggvq","anagrams_seen":["SONW","KHAOMCM","SROT"],"anagrams_answers":["SNOW","HAMMOCK","SORT"]},{"rt":3787,"responses":"{\"Q0\":\"sort\"}","trial_type":"survey-text","trial_index":17,"time_elapsed":137238,"internal_node_id":"0.0-3.2-3.3-0.3","responseType":"finish","participantID":"d8feydcb8hjrxagkz4450yw6esuyggvq","anagrams_seen":["SONW","KHAOMCM","SROT"],"anagrams_answers":["SNOW","HAMMOCK","SORT"]},{"rt":4093,"responses":"{\"Q0\":0}","trial_type":"survey-likert","trial_index":18,"time_elapsed":141335,"internal_node_id":"0.0-3.2-4.2-0.2","responseType":"finish","participantID":"d8feydcb8hjrxagkz4450yw6esuyggvq","anagrams_seen":["SONW","KHAOMCM","SROT"],"anagrams_answers":["SNOW","HAMMOCK","SORT"]}],"__v":0}
{"_id":{"$oid":"5d4c6c97d0946a0004f48f36"},"data":[{"rt":8138,"responses":"{\"Q0\":\" I consent to participate\"}","trial_type":"survey-multi-choice","trial_index":0,"time_elapsed":8143,"internal_node_id":"0.0-0.0","responseType":"finish","participantID":"7v111vzxb9oevc2f6koppog8xmtpqmsy","anagrams_seen":["DALRBEU","SONW","BLUK"],"anagrams_answers":["DURABLE","SNOW","BULK"]},{"trial_type":"call-function","trial_index":1,"time_elapsed":8154,"internal_node_id":"0.0-1.0","responseType":"finish","participantID":"7v111vzxb9oevc2f6koppog8xmtpqmsy","anagrams_seen":["DALRBEU","SONW","BLUK"],"anagrams_answers":["DURABLE","SNOW","BULK"]},{"view_history":"[{\"page_index\":0,\"viewing_time\":14967},{\"page_index\":1,\"viewing_time\":5204}]","rt":20172,"trial_type":"instructions","trial_index":2,"time_elapsed":28326,"internal_node_id":"0.0-2.0","responseType":"finish","participantID":"7v111vzxb9oevc2f6koppog8xmtpqmsy","anagrams_seen":["DALRBEU","SONW","BLUK"],"anagrams_answers":["DURABLE","SNOW","BULK"]},{"rt":2455,"stimulus":"\u003cblockquote\u003e\n  \u003cp\u003eNow an anagram will be shown to you. \u003cbr\u003e\u003cbr\u003e Press 'v' to view the anagram.\u003c/p\u003e\n\u003c/blockquote\u003e","key_press":86,"trial_type":"html-keyboard-response","trial_index":3,"time_elapsed":30783,"internal_node_id":"0.0-3.0-0.0","responseType":"finish","participantID":"7v111vzxb9oevc2f6koppog8xmtpqmsy","anagrams_seen":["DALRBEU","SONW","BLUK"],"anagrams_answers":["DURABLE","SNOW","BULK"]},{"rt":null,"stimulus":"\u003cb\u003e\u003ccenter\u003e\u003ch2\u003e\u003cp\u003eDALRBEU\u003c/p\u003e\u003c/h2\u003e\u003c/center\u003e\u003c/b\u003e","key_press":null,"trial_type":"html-keyboard-response","trial_index":4,"time_elapsed":31298,"internal_node_id":"0.0-3.0-1.0","responseType":"finish","participantID":"7v111vzxb9oevc2f6koppog8xmtpqmsy","anagrams_seen":["DALRBEU","SONW","BLUK"],"anagrams_answers":["DURABLE","SNOW","BULK"]},{"rt":9575.660000002244,"response":"6","stimulus":"\u003cp\u003eHow long do you think it will take you to solve this anagram?\u003c/p\u003e","trial_type":"html-slider-response","trial_index":5,"time_elapsed":40876,"internal_node_id":"0.0-3.0-2.0","responseType":"finish","participantID":"7v111vzxb9oevc2f6koppog8xmtpqmsy","anagrams_seen":["DALRBEU","SONW","BLUK"],"anagrams_answers":["DURABLE","SNOW","BULK"]},{"rt":91536,"responses":"{\"Q0\":\"breauld\"}","trial_type":"survey-text","trial_index":6,"time_elapsed":132414,"internal_node_id":"0.0-3.0-3.0-0.0","responseType":"finish","participantID":"7v111vzxb9oevc2f6koppog8xmtpqmsy","anagrams_seen":["DALRBEU","SONW","BLUK"],"anagrams_answers":["DURABLE","SNOW","BULK"]},{"rt":4109,"responses":"{\"Q0\":\"NEXT\"}","trial_type":"survey-text","trial_index":7,"time_elapsed":138762,"internal_node_id":"0.0-3.0-3.1-0.1","responseType":"finish","participantID":"7v111vzxb9oevc2f6koppog8xmtpqmsy","anagrams_seen":["DALRBEU","SONW","BLUK"],"anagrams_answers":["DURABLE","SNOW","BULK"]},{"rt":16085,"responses":"{\"Q0\":0}","trial_type":"survey-likert","trial_index":8,"time_elapsed":154848,"internal_node_id":"0.0-3.0-4.0-0.0","responseType":"finish","participantID":"7v111vzxb9oevc2f6koppog8xmtpqmsy","anagrams_seen":["DALRBEU","SONW","BLUK"],"anagrams_answers":["DURABLE","SNOW","BULK"]},{"rt":1810,"stimulus":"\u003cblockquote\u003e\n  \u003cp\u003eNow an anagram will be shown to you. \u003cbr\u003e\u003cbr\u003e Press 'v' to view the anagram.\u003c/p\u003e\n\u003c/blockquote\u003e","key_press":86,"trial_type":"html-keyboard-response","trial_index":9,"time_elapsed":156664,"internal_node_id":"0.0-3.1-0.1","responseType":"finish","participantID":"7v111vzxb9oevc2f6koppog8xmtpqmsy","anagrams_seen":["DALRBEU","SONW","BLUK"],"anagrams_answers":["DURABLE","SNOW","BULK"]},{"rt":null,"stimulus":"\u003cb\u003e\u003ccenter\u003e\u003ch2\u003e\u003cp\u003eSONW\u003c/p\u003e\u003c/h2\u003e\u003c/center\u003e\u003c/b\u003e","key_press":null,"trial_type":"html-keyboard-response","trial_index":10,"time_elapsed":157167,"internal_node_id":"0.0-3.1-1.1","responseType":"finish","participantID":"7v111vzxb9oevc2f6koppog8xmtpqmsy","anagrams_seen":["DALRBEU","SONW","BLUK"],"anagrams_answers":["DURABLE","SNOW","BULK"]},{"rt":3102.6350000174716,"response":"0","stimulus":"\u003cp\u003eHow long do you think it will take you to solve this anagram?\u003c/p\u003e","trial_type":"html-slider-response","trial_index":11,"time_elapsed":160272,"internal_node_id":"0.0-3.1-2.1","responseType":"finish","participantID":"7v111vzxb9oevc2f6koppog8xmtpqmsy","anagrams_seen":["DALRBEU","SONW","BLUK"],"anagrams_answers":["DURABLE","SNOW","BULK"]},{"rt":4765,"responses":"{\"Q0\":\"snow\"}","trial_type":"survey-text","trial_index":12,"time_elapsed":165037,"internal_node_id":"0.0-3.1-3.2-0.2","responseType":"finish","participantID":"7v111vzxb9oevc2f6koppog8xmtpqmsy","anagrams_seen":["DALRBEU","SONW","BLUK"],"anagrams_answers":["DURABLE","SNOW","BULK"]},{"rt":3737,"responses":"{\"Q0\":3}","trial_type":"survey-likert","trial_index":13,"time_elapsed":168776,"internal_node_id":"0.0-3.1-4.1-0.1","responseType":"finish","participantID":"7v111vzxb9oevc2f6koppog8xmtpqmsy","anagrams_seen":["DALRBEU","SONW","BLUK"],"anagrams_answers":["DURABLE","SNOW","BULK"]},{"rt":1207,"stimulus":"\u003cblockquote\u003e\n  \u003cp\u003eNow an anagram will be shown to you. \u003cbr\u003e\u003cbr\u003e Press 'v' to view the anagram.\u003c/p\u003e\n\u003c/blockquote\u003e","key_press":86,"trial_type":"html-keyboard-response","trial_index":14,"time_elapsed":169987,"internal_node_id":"0.0-3.2-0.2","responseType":"finish","participantID":"7v111vzxb9oevc2f6koppog8xmtpqmsy","anagrams_seen":["DALRBEU","SONW","BLUK"],"anagrams_answers":["DURABLE","SNOW","BULK"]},{"rt":null,"stimulus":"\u003cb\u003e\u003ccenter\u003e\u003ch2\u003e\u003cp\u003eBLUK\u003c/p\u003e\u003c/h2\u003e\u003c/center\u003e\u003c/b\u003e","key_press":null,"trial_type":"html-keyboard-response","trial_index":15,"time_elapsed":170489,"internal_node_id":"0.0-3.2-1.2","responseType":"finish","participantID":"7v111vzxb9oevc2f6koppog8xmtpqmsy","anagrams_seen":["DALRBEU","SONW","BLUK"],"anagrams_answers":["DURABLE","SNOW","BULK"]},{"rt":3849.660000007134,"response":"0","stimulus":"\u003cp\u003eHow long do you think it will take you to solve this anagram?\u003c/p\u003e","trial_type":"html-slider-response","trial_index":16,"time_elapsed":174341,"internal_node_id":"0.0-3.2-2.2","responseType":"finish","participantID":"7v111vzxb9oevc2f6koppog8xmtpqmsy","anagrams_seen":["DALRBEU","SONW","BLUK"],"anagrams_answers":["DURABLE","SNOW","BULK"]},{"rt":7906,"responses":"{\"Q0\":\"bulk\"}","trial_type":"survey-text","trial_index":17,"time_elapsed":182249,"internal_node_id":"0.0-3.2-3.3-0.3","responseType":"finish","participantID":"7v111vzxb9oevc2f6koppog8xmtpqmsy","anagrams_seen":["DALRBEU","SONW","BLUK"],"anagrams_answers":["DURABLE","SNOW","BULK"]},{"rt":3338,"responses":"{\"Q0\":4}","trial_type":"survey-likert","trial_index":18,"time_elapsed":185590,"internal_node_id":"0.0-3.2-4.2-0.2","responseType":"finish","participantID":"7v111vzxb9oevc2f6koppog8xmtpqmsy","anagrams_seen":["DALRBEU","SONW","BLUK"],"anagrams_answers":["DURABLE","SNOW","BULK"]}],"__v":0}
{"_id":{"$oid":"5d4c6c9ad0946a0004f48f37"},"data":{"responseType":"start","participantID":"qngy0suj7s014q7gwvmz32xonb6k8n27","anagrams_seen":["IORCNAG","VLVOO","SONW"],"anagrams_answers":["ORGANIC","VOLVO","SNOW"]},"__v":0}
{"_id":{"$oid":"5d4c6ca1d0946a0004f48f38"},"data":{"responseType":"start","participantID":"qyjek2t16q12y8ak462mekupso59abb9","anagrams_seen":["KHAOMCM","DALRBEU","PITN"],"anagrams_answers":["HAMMOCK","DURABLE","PINT"]},"__v":0}
{"_id":{"$oid":"5d4c6ca2d0946a0004f48f39"},"data":{"responseType":"start","participantID":"a0pnu0ux58nw5z67zhfuxwgdek80w26e","anagrams_seen":["VLVOO","KHAOMCM","BLUK"],"anagrams_answers":["VOLVO","HAMMOCK","BULK"]},"__v":0}
{"_id":{"$oid":"5d4c6ca9d0946a0004f48f3a"},"data":{"responseType":"start","participantID":"274g0g17voweja9awkyzzpkvoweg4vyr","anagrams_seen":["PITN","BLUK","TEH"],"anagrams_answers":["PINT","BULK","THE"]},"__v":0}
{"_id":{"$oid":"5d4c6ccbd0946a0004f48f3b"},"data":[{"rt":5276,"responses":"{\"Q0\":\" I consent to participate\"}","trial_type":"survey-multi-choice","trial_index":0,"time_elapsed":5306,"internal_node_id":"0.0-0.0","responseType":"finish","participantID":"33s4xm1gr7t23bdhyh40enetbbxh3wpy","anagrams_seen":["VLVOO","DALRBEU","IORCNAG"],"anagrams_answers":["VOLVO","DURABLE","ORGANIC"]},{"trial_type":"call-function","trial_index":1,"time_elapsed":5320,"internal_node_id":"0.0-1.0","responseType":"finish","participantID":"33s4xm1gr7t23bdhyh40enetbbxh3wpy","anagrams_seen":["VLVOO","DALRBEU","IORCNAG"],"anagrams_answers":["VOLVO","DURABLE","ORGANIC"]},{"view_history":"[{\"page_index\":0,\"viewing_time\":6069},{\"page_index\":1,\"viewing_time\":10608}]","rt":16679,"trial_type":"instructions","trial_index":2,"time_elapsed":21999,"internal_node_id":"0.0-2.0","responseType":"finish","participantID":"33s4xm1gr7t23bdhyh40enetbbxh3wpy","anagrams_seen":["VLVOO","DALRBEU","IORCNAG"],"anagrams_answers":["VOLVO","DURABLE","ORGANIC"]},{"rt":1808,"stimulus":"\u003cblockquote\u003e\n  \u003cp\u003eNow an anagram will be shown to you. \u003cbr\u003e\u003cbr\u003e Press 'v' to view the anagram.\u003c/p\u003e\n\u003c/blockquote\u003e","key_press":86,"trial_type":"html-keyboard-response","trial_index":3,"time_elapsed":23810,"internal_node_id":"0.0-3.0-0.0","responseType":"finish","participantID":"33s4xm1gr7t23bdhyh40enetbbxh3wpy","anagrams_seen":["VLVOO","DALRBEU","IORCNAG"],"anagrams_answers":["VOLVO","DURABLE","ORGANIC"]},{"rt":null,"stimulus":"\u003cb\u003e\u003ccenter\u003e\u003ch2\u003e\u003cp\u003eVLVOO\u003c/p\u003e\u003c/h2\u003e\u003c/center\u003e\u003c/b\u003e","key_press":null,"trial_type":"html-keyboard-response","trial_index":4,"time_elapsed":24324,"internal_node_id":"0.0-3.0-1.0","responseType":"finish","participantID":"33s4xm1gr7t23bdhyh40enetbbxh3wpy","anagrams_seen":["VLVOO","DALRBEU","IORCNAG"],"anagrams_answers":["VOLVO","DURABLE","ORGANIC"]},{"rt":3918.00000006333,"response":"0","stimulus":"\u003cp\u003eHow long do you think it will take you to solve this anagram?\u003c/p\u003e","trial_type":"html-slider-response","trial_index":5,"time_elapsed":28246,"internal_node_id":"0.0-3.0-2.0","responseType":"finish","participantID":"33s4xm1gr7t23bdhyh40enetbbxh3wpy","anagrams_seen":["VLVOO","DALRBEU","IORCNAG"],"anagrams_answers":["VOLVO","DURABLE","ORGANIC"]},{"rt":6860,"responses":"{\"Q0\":\"VOLVO\"}","trial_type":"survey-text","trial_index":6,"time_elapsed":35110,"internal_node_id":"0.0-3.0-3.0-0.0","responseType":"finish","participantID":"33s4xm1gr7t23bdhyh40enetbbxh3wpy","anagrams_seen":["VLVOO","DALRBEU","IORCNAG"],"anagrams_answers":["VOLVO","DURABLE","ORGANIC"]},{"rt":7267,"responses":"{\"Q0\":6}","trial_type":"survey-likert","trial_index":7,"time_elapsed":42384,"internal_node_id":"0.0-3.0-4.0-0.0","responseType":"finish","participantID":"33s4xm1gr7t23bdhyh40enetbbxh3wpy","anagrams_seen":["VLVOO","DALRBEU","IORCNAG"],"anagrams_answers":["VOLVO","DURABLE","ORGANIC"]},{"rt":1285,"stimulus":"\u003cblockquote\u003e\n  \u003cp\u003eNow an anagram will be shown to you. \u003cbr\u003e\u003cbr\u003e Press 'v' to view the anagram.\u003c/p\u003e\n\u003c/blockquote\u003e","key_press":86,"trial_type":"html-keyboard-response","trial_index":8,"time_elapsed":43674,"internal_node_id":"0.0-3.1-0.1","responseType":"finish","participantID":"33s4xm1gr7t23bdhyh40enetbbxh3wpy","anagrams_seen":["VLVOO","DALRBEU","IORCNAG"],"anagrams_answers":["VOLVO","DURABLE","ORGANIC"]},{"rt":null,"stimulus":"\u003cb\u003e\u003ccenter\u003e\u003ch2\u003e\u003cp\u003eDALRBEU\u003c/p\u003e\u003c/h2\u003e\u003c/center\u003e\u003c/b\u003e","key_press":null,"trial_type":"html-keyboard-response","trial_index":9,"time_elapsed":44177,"internal_node_id":"0.0-3.1-1.1","responseType":"finish","participantID":"33s4xm1gr7t23bdhyh40enetbbxh3wpy","anagrams_seen":["VLVOO","DALRBEU","IORCNAG"],"anagrams_answers":["VOLVO","DURABLE","ORGANIC"]},{"rt":2881.9999997504056,"response":"4.1","stimulus":"\u003cp\u003eHow long do you think it will take you to solve this anagram?\u003c/p\u003e","trial_type":"html-slider-response","trial_index":10,"time_elapsed":47062,"internal_node_id":"0.0-3.1-2.1","responseType":"finish","participantID":"33s4xm1gr7t23bdhyh40enetbbxh3wpy","anagrams_seen":["VLVOO","DALRBEU","IORCNAG"],"anagrams_answers":["VOLVO","DURABLE","ORGANIC"]},{"rt":57316,"responses":"{\"Q0\":\"DURABLE\"}","trial_type":"survey-text","trial_index":11,"time_elapsed":104382,"internal_node_id":"0.0-3.1-3.1-0.1","responseType":"finish","participantID":"33s4xm1gr7t23bdhyh40enetbbxh3wpy","anagrams_seen":["VLVOO","DALRBEU","IORCNAG"],"anagrams_answers":["VOLVO","DURABLE","ORGANIC"]},{"rt":4723,"responses":"{\"Q0\":0}","trial_type":"survey-likert","trial_index":12,"time_elapsed":109111,"internal_node_id":"0.0-3.1-4.1-0.1","responseType":"finish","participantID":"33s4xm1gr7t23bdhyh40enetbbxh3wpy","anagrams_seen":["VLVOO","DALRBEU","IORCNAG"],"anagrams_answers":["VOLVO","DURABLE","ORGANIC"]},{"rt":1275,"stimulus":"\u003cblockquote\u003e\n  \u003cp\u003eNow an anagram will be shown to you. \u003cbr\u003e\u003cbr\u003e Press 'v' to view the anagram.\u003c/p\u003e\n\u003c/blockquote\u003e","key_press":86,"trial_type":"html-keyboard-response","trial_index":13,"time_elapsed":110388,"internal_node_id":"0.0-3.2-0.2","responseType":"finish","participantID":"33s4xm1gr7t23bdhyh40enetbbxh3wpy","anagrams_seen":["VLVOO","DALRBEU","IORCNAG"],"anagrams_answers":["VOLVO","DURABLE","ORGANIC"]},{"rt":null,"stimulus":"\u003cb\u003e\u003ccenter\u003e\u003ch2\u003e\u003cp\u003eIORCNAG\u003c/p\u003e\u003c/h2\u003e\u003c/center\u003e\u003c/b\u003e","key_press":null,"trial_type":"html-keyboard-response","trial_index":14,"time_elapsed":110891,"internal_node_id":"0.0-3.2-1.2","responseType":"finish","participantID":"33s4xm1gr7t23bdhyh40enetbbxh3wpy","anagrams_seen":["VLVOO","DALRBEU","IORCNAG"],"anagrams_answers":["VOLVO","DURABLE","ORGANIC"]},{"rt":2481.0000001452863,"response":"4.5","stimulus":"\u003cp\u003eHow long do you think it will take you to solve this anagram?\u003c/p\u003e","trial_type":"html-slider-response","trial_index":15,"time_elapsed":113375,"internal_node_id":"0.0-3.2-2.2","responseType":"finish","participantID":"33s4xm1gr7t23bdhyh40enetbbxh3wpy","anagrams_seen":["VLVOO","DALRBEU","IORCNAG"],"anagrams_answers":["VOLVO","DURABLE","ORGANIC"]},{"rt":17858,"responses":"{\"Q0\":\"ORGANIC\"}","trial_type":"survey-text","trial_index":16,"time_elapsed":131237,"internal_node_id":"0.0-3.2-3.2-0.2","responseType":"finish","participantID":"33s4xm1gr7t23bdhyh40enetbbxh3wpy","anagrams_seen":["VLVOO","DALRBEU","IORCNAG"],"anagrams_answers":["VOLVO","DURABLE","ORGANIC"]},{"rt":2956,"responses":"{\"Q0\":4}","trial_type":"survey-likert","trial_index":17,"time_elapsed":134198,"internal_node_id":"0.0-3.2-4.2-0.2","responseType":"finish","participantID":"33s4xm1gr7t23bdhyh40enetbbxh3wpy","anagrams_seen":["VLVOO","DALRBEU","IORCNAG"],"anagrams_answers":["VOLVO","DURABLE","ORGANIC"]}],"__v":0}
{"_id":{"$oid":"5d4c6ccbd0946a0004f48f3c"},"data":[{"rt":3465,"responses":"{\"Q0\":\" I consent to participate\"}","trial_type":"survey-multi-choice","trial_index":0,"time_elapsed":3469,"internal_node_id":"0.0-0.0","responseType":"finish","participantID":"zpp0t7swdawxxawyxblxk6q3c4hakr5l","anagrams_seen":["IORCNAG","VLVOO","SONW"],"anagrams_answers":["ORGANIC","VOLVO","SNOW"]},{"trial_type":"call-function","trial_index":1,"time_elapsed":3504,"internal_node_id":"0.0-1.0","responseType":"finish","participantID":"zpp0t7swdawxxawyxblxk6q3c4hakr5l","anagrams_seen":["IORCNAG","VLVOO","SONW"],"anagrams_answers":["ORGANIC","VOLVO","SNOW"]},{"view_history":"[{\"page_index\":0,\"viewing_time\":12955},{\"page_index\":1,\"viewing_time\":14495}]","rt":27451,"trial_type":"instructions","trial_index":2,"time_elapsed":30956,"internal_node_id":"0.0-2.0","responseType":"finish","participantID":"zpp0t7swdawxxawyxblxk6q3c4hakr5l","anagrams_seen":["IORCNAG","VLVOO","SONW"],"anagrams_answers":["ORGANIC","VOLVO","SNOW"]},{"rt":3804,"stimulus":"\u003cblockquote\u003e\n  \u003cp\u003eNow an anagram will be shown to you. \u003cbr\u003e\u003cbr\u003e Press 'v' to view the anagram.\u003c/p\u003e\n\u003c/blockquote\u003e","key_press":86,"trial_type":"html-keyboard-response","trial_index":3,"time_elapsed":34761,"internal_node_id":"0.0-3.0-0.0","responseType":"finish","participantID":"zpp0t7swdawxxawyxblxk6q3c4hakr5l","anagrams_seen":["IORCNAG","VLVOO","SONW"],"anagrams_answers":["ORGANIC","VOLVO","SNOW"]},{"rt":null,"stimulus":"\u003cb\u003e\u003ccenter\u003e\u003ch2\u003e\u003cp\u003eIORCNAG\u003c/p\u003e\u003c/h2\u003e\u003c/center\u003e\u003c/b\u003e","key_press":null,"trial_type":"html-keyboard-response","trial_index":4,"time_elapsed":35274,"internal_node_id":"0.0-3.0-1.0","responseType":"finish","participantID":"zpp0t7swdawxxawyxblxk6q3c4hakr5l","anagrams_seen":["IORCNAG","VLVOO","SONW"],"anagrams_answers":["ORGANIC","VOLVO","SNOW"]},{"rt":3216.7200000003504,"response":"6","stimulus":"\u003cp\u003eHow long do you think it will take you to solve this anagram?\u003c/p\u003e","trial_type":"html-slider-response","trial_index":5,"time_elapsed":38493,"internal_node_id":"0.0-3.0-2.0","responseType":"finish","participantID":"zpp0t7swdawxxawyxblxk6q3c4hakr5l","anagrams_seen":["IORCNAG","VLVOO","SONW"],"anagrams_answers":["ORGANIC","VOLVO","SNOW"]},{"rt":48556,"responses":"{\"Q0\":\"\"}","trial_type":"survey-text","trial_index":6,"time_elapsed":87052,"internal_node_id":"0.0-3.0-3.0-0.0","responseType":"finish","participantID":"zpp0t7swdawxxawyxblxk6q3c4hakr5l","anagrams_seen":["IORCNAG","VLVOO","SONW"],"anagrams_answers":["ORGANIC","VOLVO","SNOW"]},{"rt":3490,"responses":"{\"Q0\":\"NEXT\"}","trial_type":"survey-text","trial_index":7,"time_elapsed":91945,"internal_node_id":"0.0-3.0-3.1-0.1","responseType":"finish","participantID":"zpp0t7swdawxxawyxblxk6q3c4hakr5l","anagrams_seen":["IORCNAG","VLVOO","SONW"],"anagrams_answers":["ORGANIC","VOLVO","SNOW"]},{"rt":11138,"responses":"{\"Q0\":0}","trial_type":"survey-likert","trial_index":8,"time_elapsed":103086,"internal_node_id":"0.0-3.0-4.0-0.0","responseType":"finish","participantID":"zpp0t7swdawxxawyxblxk6q3c4hakr5l","anagrams_seen":["IORCNAG","VLVOO","SONW"],"anagrams_answers":["ORGANIC","VOLVO","SNOW"]},{"rt":22710,"stimulus":"\u003cblockquote\u003e\n  \u003cp\u003eNow an anagram will be shown to you. \u003cbr\u003e\u003cbr\u003e Press 'v' to view the anagram.\u003c/p\u003e\n\u003c/blockquote\u003e","key_press":86,"trial_type":"html-keyboard-response","trial_index":9,"time_elapsed":125820,"internal_node_id":"0.0-3.1-0.1","responseType":"finish","participantID":"zpp0t7swdawxxawyxblxk6q3c4hakr5l","anagrams_seen":["IORCNAG","VLVOO","SONW"],"anagrams_answers":["ORGANIC","VOLVO","SNOW"]},{"rt":null,"stimulus":"\u003cb\u003e\u003ccenter\u003e\u003ch2\u003e\u003cp\u003eVLVOO\u003c/p\u003e\u003c/h2\u003e\u003c/center\u003e\u003c/b\u003e","key_press":null,"trial_type":"html-keyboard-response","trial_index":10,"time_elapsed":126322,"internal_node_id":"0.0-3.1-1.1","responseType":"finish","participantID":"zpp0t7swdawxxawyxblxk6q3c4hakr5l","anagrams_seen":["IORCNAG","VLVOO","SONW"],"anagrams_answers":["ORGANIC","VOLVO","SNOW"]},{"rt":2880.7899999992514,"response":"4.8","stimulus":"\u003cp\u003eHow long do you think it will take you to solve this anagram?\u003c/p\u003e","trial_type":"html-slider-response","trial_index":11,"time_elapsed":129205,"internal_node_id":"0.0-3.1-2.1","responseType":"finish","participantID":"zpp0t7swdawxxawyxblxk6q3c4hakr5l","anagrams_seen":["IORCNAG","VLVOO","SONW"],"anagrams_answers":["ORGANIC","VOLVO","SNOW"]},{"rt":18094,"responses":"{\"Q0\":\"volvo\"}","trial_type":"survey-text","trial_index":12,"time_elapsed":147300,"internal_node_id":"0.0-3.1-3.2-0.2","responseType":"finish","participantID":"zpp0t7swdawxxawyxblxk6q3c4hakr5l","anagrams_seen":["IORCNAG","VLVOO","SONW"],"anagrams_answers":["ORGANIC","VOLVO","SNOW"]},{"rt":6150,"responses":"{\"Q0\":2}","trial_type":"survey-likert","trial_index":13,"time_elapsed":153453,"internal_node_id":"0.0-3.1-4.1-0.1","responseType":"finish","participantID":"zpp0t7swdawxxawyxblxk6q3c4hakr5l","anagrams_seen":["IORCNAG","VLVOO","SONW"],"anagrams_answers":["ORGANIC","VOLVO","SNOW"]},{"rt":13287,"stimulus":"\u003cblockquote\u003e\n  \u003cp\u003eNow an anagram will be shown to you. \u003cbr\u003e\u003cbr\u003e Press 'v' to view the anagram.\u003c/p\u003e\n\u003c/blockquote\u003e","key_press":86,"trial_type":"html-keyboard-response","trial_index":14,"time_elapsed":166764,"internal_node_id":"0.0-3.2-0.2","responseType":"finish","participantID":"zpp0t7swdawxxawyxblxk6q3c4hakr5l","anagrams_seen":["IORCNAG","VLVOO","SONW"],"anagrams_answers":["ORGANIC","VOLVO","SNOW"]},{"rt":null,"stimulus":"\u003cb\u003e\u003ccenter\u003e\u003ch2\u003e\u003cp\u003eSONW\u003c/p\u003e\u003c/h2\u003e\u003c/center\u003e\u003c/b\u003e","key_press":null,"trial_type":"html-keyboard-response","trial_index":15,"time_elapsed":167265,"internal_node_id":"0.0-3.2-1.2","responseType":"finish","participantID":"zpp0t7swdawxxawyxblxk6q3c4hakr5l","anagrams_seen":["IORCNAG","VLVOO","SONW"],"anagrams_answers":["ORGANIC","VOLVO","SNOW"]},{"rt":2177.544999998645,"response":"0","stimulus":"\u003cp\u003eHow long do you think it will take you to solve this anagram?\u003c/p\u003e","trial_type":"html-slider-response","trial_index":16,"time_elapsed":169444,"internal_node_id":"0.0-3.2-2.2","responseType":"finish","participantID":"zpp0t7swdawxxawyxblxk6q3c4hakr5l","anagrams_seen":["IORCNAG","VLVOO","SONW"],"anagrams_answers":["ORGANIC","VOLVO","SNOW"]},{"rt":2035,"responses":"{\"Q0\":\"snow\"}","trial_type":"survey-text","trial_index":17,"time_elapsed":171481,"internal_node_id":"0.0-3.2-3.3-0.3","responseType":"finish","participantID":"zpp0t7swdawxxawyxblxk6q3c4hakr5l","anagrams_seen":["IORCNAG","VLVOO","SONW"],"anagrams_answers":["ORGANIC","VOLVO","SNOW"]},{"rt":2154,"responses":"{\"Q0\":0}","trial_type":"survey-likert","trial_index":18,"time_elapsed":173637,"internal_node_id":"0.0-3.2-4.2-0.2","responseType":"finish","participantID":"zpp0t7swdawxxawyxblxk6q3c4hakr5l","anagrams_seen":["IORCNAG","VLVOO","SONW"],"anagrams_answers":["ORGANIC","VOLVO","SNOW"]}],"__v":0}
{"_id":{"$oid":"5d4c6ce5d0946a0004f48f3d"},"data":[{"rt":2944,"responses":"{\"Q0\":\" I consent to participate\"}","trial_type":"survey-multi-choice","trial_index":0,"time_elapsed":2949,"internal_node_id":"0.0-0.0","responseType":"finish","participantID":"274g0g17voweja9awkyzzpkvoweg4vyr","anagrams_seen":["PITN","BLUK","TEH"],"anagrams_answers":["PINT","BULK","THE"]},{"trial_type":"call-function","trial_index":1,"time_elapsed":2952,"internal_node_id":"0.0-1.0","responseType":"finish","participantID":"274g0g17voweja9awkyzzpkvoweg4vyr","anagrams_seen":["PITN","BLUK","TEH"],"anagrams_answers":["PINT","BULK","THE"]},{"view_history":"[{\"page_index\":0,\"viewing_time\":5945},{\"page_index\":1,\"viewing_time\":7979}]","rt":13924,"trial_type":"instructions","trial_index":2,"time_elapsed":16876,"internal_node_id":"0.0-2.0","responseType":"finish","participantID":"274g0g17voweja9awkyzzpkvoweg4vyr","anagrams_seen":["PITN","BLUK","TEH"],"anagrams_answers":["PINT","BULK","THE"]},{"rt":2050,"stimulus":"\u003cblockquote\u003e\n  \u003cp\u003eNow an anagram will be shown to you. \u003cbr\u003e\u003cbr\u003e Press 'v' to view the anagram.\u003c/p\u003e\n\u003c/blockquote\u003e","key_press":86,"trial_type":"html-keyboard-response","trial_index":3,"time_elapsed":18927,"internal_node_id":"0.0-3.0-0.0","responseType":"finish","participantID":"274g0g17voweja9awkyzzpkvoweg4vyr","anagrams_seen":["PITN","BLUK","TEH"],"anagrams_answers":["PINT","BULK","THE"]},{"rt":null,"stimulus":"\u003cb\u003e\u003ccenter\u003e\u003ch2\u003e\u003cp\u003ePITN\u003c/p\u003e\u003c/h2\u003e\u003c/center\u003e\u003c/b\u003e","key_press":null,"trial_type":"html-keyboard-response","trial_index":4,"time_elapsed":19431,"internal_node_id":"0.0-3.0-1.0","responseType":"finish","participantID":"274g0g17voweja9awkyzzpkvoweg4vyr","anagrams_seen":["PITN","BLUK","TEH"],"anagrams_answers":["PINT","BULK","THE"]},{"rt":5198.94000000204,"response":"0.3","stimulus":"\u003cp\u003eHow long do you think it will take you to solve this anagram?\u003c/p\u003e","trial_type":"html-slider-response","trial_index":5,"time_elapsed":24632,"internal_node_id":"0.0-3.0-2.0","responseType":"finish","participantID":"274g0g17voweja9awkyzzpkvoweg4vyr","anagrams_seen":["PITN","BLUK","TEH"],"anagrams_answers":["PINT","BULK","THE"]},{"rt":9216,"responses":"{\"Q0\":\"PINT\"}","trial_type":"survey-text","trial_index":6,"time_elapsed":33851,"internal_node_id":"0.0-3.0-3.0-0.0","responseType":"finish","participantID":"274g0g17voweja9awkyzzpkvoweg4vyr","anagrams_seen":["PITN","BLUK","TEH"],"anagrams_answers":["PINT","BULK","THE"]},{"rt":11941,"responses":"{\"Q0\":3}","trial_type":"survey-likert","trial_index":7,"time_elapsed":45794,"internal_node_id":"0.0-3.0-4.0-0.0","responseType":"finish","participantID":"274g0g17voweja9awkyzzpkvoweg4vyr","anagrams_seen":["PITN","BLUK","TEH"],"anagrams_answers":["PINT","BULK","THE"]},{"rt":1433,"stimulus":"\u003cblockquote\u003e\n  \u003cp\u003eNow an anagram will be shown to you. \u003cbr\u003e\u003cbr\u003e Press 'v' to view the anagram.\u003c/p\u003e\n\u003c/blockquote\u003e","key_press":86,"trial_type":"html-keyboard-response","trial_index":8,"time_elapsed":47229,"internal_node_id":"0.0-3.1-0.1","responseType":"finish","participantID":"274g0g17voweja9awkyzzpkvoweg4vyr","anagrams_seen":["PITN","BLUK","TEH"],"anagrams_answers":["PINT","BULK","THE"]},{"rt":null,"stimulus":"\u003cb\u003e\u003ccenter\u003e\u003ch2\u003e\u003cp\u003eBLUK\u003c/p\u003e\u003c/h2\u003e\u003c/center\u003e\u003c/b\u003e","key_press":null,"trial_type":"html-keyboard-response","trial_index":9,"time_elapsed":47731,"internal_node_id":"0.0-3.1-1.1","responseType":"finish","participantID":"274g0g17voweja9awkyzzpkvoweg4vyr","anagrams_seen":["PITN","BLUK","TEH"],"anagrams_answers":["PINT","BULK","THE"]},{"rt":2481.005000008736,"response":"0","stimulus":"\u003cp\u003eHow long do you think it will take you to solve this anagram?\u003c/p\u003e","trial_type":"html-slider-response","trial_index":10,"time_elapsed":50212,"internal_node_id":"0.0-3.1-2.1","responseType":"finish","participantID":"274g0g17voweja9awkyzzpkvoweg4vyr","anagrams_seen":["PITN","BLUK","TEH"],"anagrams_answers":["PINT","BULK","THE"]},{"rt":2840,"responses":"{\"Q0\":\"BULK\"}","trial_type":"survey-text","trial_index":11,"time_elapsed":53054,"internal_node_id":"0.0-3.1-3.1-0.1","responseType":"finish","participantID":"274g0g17voweja9awkyzzpkvoweg4vyr","anagrams_seen":["PITN","BLUK","TEH"],"anagrams_answers":["PINT","BULK","THE"]},{"rt":2142,"responses":"{\"Q0\":0}","trial_type":"survey-likert","trial_index":12,"time_elapsed":55198,"internal_node_id":"0.0-3.1-4.1-0.1","responseType":"finish","participantID":"274g0g17voweja9awkyzzpkvoweg4vyr","anagrams_seen":["PITN","BLUK","TEH"],"anagrams_answers":["PINT","BULK","THE"]},{"rt":1855,"stimulus":"\u003cblockquote\u003e\n  \u003cp\u003eNow an anagram will be shown to you. \u003cbr\u003e\u003cbr\u003e Press 'v' to view the anagram.\u003c/p\u003e\n\u003c/blockquote\u003e","key_press":86,"trial_type":"html-keyboard-response","trial_index":13,"time_elapsed":57053,"internal_node_id":"0.0-3.2-0.2","responseType":"finish","participantID":"274g0g17voweja9awkyzzpkvoweg4vyr","anagrams_seen":["PITN","BLUK","TEH"],"anagrams_answers":["PINT","BULK","THE"]},{"rt":null,"stimulus":"\u003cb\u003e\u003ccenter\u003e\u003ch2\u003e\u003cp\u003eTEH\u003c/p\u003e\u003c/h2\u003e\u003c/center\u003e\u003c/b\u003e","key_press":null,"trial_type":"html-keyboard-response","trial_index":14,"time_elapsed":57555,"internal_node_id":"0.0-3.2-1.2","responseType":"finish","participantID":"274g0g17voweja9awkyzzpkvoweg4vyr","anagrams_seen":["PITN","BLUK","TEH"],"anagrams_answers":["PINT","BULK","THE"]},{"rt":1476.1299999954645,"response":"0","stimulus":"\u003cp\u003eHow long do you think it will take you to solve this anagram?\u003c/p\u003e","trial_type":"html-slider-response","trial_index":15,"time_elapsed":59032,"internal_node_id":"0.0-3.2-2.2","responseType":"finish","participantID":"274g0g17voweja9awkyzzpkvoweg4vyr","anagrams_seen":["PITN","BLUK","TEH"],"anagrams_answers":["PINT","BULK","THE"]},{"rt":1977,"responses":"{\"Q0\":\"THE\"}","trial_type":"survey-text","trial_index":16,"time_elapsed":61013,"internal_node_id":"0.0-3.2-3.2-0.2","responseType":"finish","participantID":"274g0g17voweja9awkyzzpkvoweg4vyr","anagrams_seen":["PITN","BLUK","TEH"],"anagrams_answers":["PINT","BULK","THE"]},{"rt":1851,"responses":"{\"Q0\":4}","trial_type":"survey-likert","trial_index":17,"time_elapsed":62865,"internal_node_id":"0.0-3.2-4.2-0.2","responseType":"finish","participantID":"274g0g17voweja9awkyzzpkvoweg4vyr","anagrams_seen":["PITN","BLUK","TEH"],"anagrams_answers":["PINT","BULK","THE"]}],"__v":0}
{"_id":{"$oid":"5d4c6cead0946a0004f48f3e"},"data":[{"rt":3107,"responses":"{\"Q0\":\" I consent to participate\"}","trial_type":"survey-multi-choice","trial_index":0,"time_elapsed":3111,"internal_node_id":"0.0-0.0","responseType":"finish","participantID":"v20hkogaob41411wtfvqtj3jt3qf2vgx","anagrams_seen":["HNATUYG","DALRBEU","IORCNAG"],"anagrams_answers":["NAUGHTY","DURABLE","ORGANIC"]},{"trial_type":"call-function","trial_index":1,"time_elapsed":3114,"internal_node_id":"0.0-1.0","responseType":"finish","participantID":"v20hkogaob41411wtfvqtj3jt3qf2vgx","anagrams_seen":["HNATUYG","DALRBEU","IORCNAG"],"anagrams_answers":["NAUGHTY","DURABLE","ORGANIC"]},{"view_history":"[{\"page_index\":0,\"viewing_time\":6631},{\"page_index\":1,\"viewing_time\":7072}]","rt":13704,"trial_type":"instructions","trial_index":2,"time_elapsed":16819,"internal_node_id":"0.0-2.0","responseType":"finish","participantID":"v20hkogaob41411wtfvqtj3jt3qf2vgx","anagrams_seen":["HNATUYG","DALRBEU","IORCNAG"],"anagrams_answers":["NAUGHTY","DURABLE","ORGANIC"]},{"rt":3799,"stimulus":"\u003cblockquote\u003e\n  \u003cp\u003eNow an anagram will be shown to you. \u003cbr\u003e\u003cbr\u003e Press 'v' to view the anagram.\u003c/p\u003e\n\u003c/blockquote\u003e","key_press":86,"trial_type":"html-keyboard-response","trial_index":3,"time_elapsed":20618,"internal_node_id":"0.0-3.0-0.0","responseType":"finish","participantID":"v20hkogaob41411wtfvqtj3jt3qf2vgx","anagrams_seen":["HNATUYG","DALRBEU","IORCNAG"],"anagrams_answers":["NAUGHTY","DURABLE","ORGANIC"]},{"rt":null,"stimulus":"\u003cb\u003e\u003ccenter\u003e\u003ch2\u003e\u003cp\u003eHNATUYG\u003c/p\u003e\u003c/h2\u003e\u003c/center\u003e\u003c/b\u003e","key_press":null,"trial_type":"html-keyboard-response","trial_index":4,"time_elapsed":21122,"internal_node_id":"0.0-3.0-1.0","responseType":"finish","participantID":"v20hkogaob41411wtfvqtj3jt3qf2vgx","anagrams_seen":["HNATUYG","DALRBEU","IORCNAG"],"anagrams_answers":["NAUGHTY","DURABLE","ORGANIC"]},{"rt":4760.460000001331,"response":"4.1","stimulus":"\u003cp\u003eHow long do you think it will take you to solve this anagram?\u003c/p\u003e","trial_type":"html-slider-response","trial_index":5,"time_elapsed":25884,"internal_node_id":"0.0-3.0-2.0","responseType":"finish","participantID":"v20hkogaob41411wtfvqtj3jt3qf2vgx","anagrams_seen":["HNATUYG","DALRBEU","IORCNAG"],"anagrams_answers":["NAUGHTY","DURABLE","ORGANIC"]},{"rt":100405,"responses":"{\"Q0\":\"NEXT\"}","trial_type":"survey-text","trial_index":6,"time_elapsed":126290,"internal_node_id":"0.0-3.0-3.0-0.0","responseType":"finish","participantID":"v20hkogaob41411wtfvqtj3jt3qf2vgx","anagrams_seen":["HNATUYG","DALRBEU","IORCNAG"],"anagrams_answers":["NAUGHTY","DURABLE","ORGANIC"]},{"rt":9160,"responses":"{\"Q0\":0}","trial_type":"survey-likert","trial_index":7,"time_elapsed":135452,"internal_node_id":"0.0-3.0-4.0-0.0","responseType":"finish","participantID":"v20hkogaob41411wtfvqtj3jt3qf2vgx","anagrams_seen":["HNATUYG","DALRBEU","IORCNAG"],"anagrams_answers":["NAUGHTY","DURABLE","ORGANIC"]},{"rt":2572,"stimulus":"\u003cblockquote\u003e\n  \u003cp\u003eNow an anagram will be shown to you. \u003cbr\u003e\u003cbr\u003e Press 'v' to view the anagram.\u003c/p\u003e\n\u003c/blockquote\u003e","key_press":86,"trial_type":"html-keyboard-response","trial_index":8,"time_elapsed":138026,"internal_node_id":"0.0-3.1-0.1","responseType":"finish","participantID":"v20hkogaob41411wtfvqtj3jt3qf2vgx","anagrams_seen":["HNATUYG","DALRBEU","IORCNAG"],"anagrams_answers":["NAUGHTY","DURABLE","ORGANIC"]},{"rt":null,"stimulus":"\u003cb\u003e\u003ccenter\u003e\u003ch2\u003e\u003cp\u003eDALRBEU\u003c/p\u003e\u003c/h2\u003e\u003c/center\u003e\u003c/b\u003e","key_press":null,"trial_type":"html-keyboard-response","trial_index":9,"time_elapsed":138527,"internal_node_id":"0.0-3.1-1.1","responseType":"finish","participantID":"v20hkogaob41411wtfvqtj3jt3qf2vgx","anagrams_seen":["HNATUYG","DALRBEU","IORCNAG"],"anagrams_answers":["NAUGHTY","DURABLE","ORGANIC"]},{"rt":4729.165000000648,"response":"4.9","stimulus":"\u003cp\u003eHow long do you think it will take you to solve this anagram?\u003c/p\u003e","trial_type":"html-slider-response","trial_index":10,"time_elapsed":143257,"internal_node_id":"0.0-3.1-2.1","responseType":"finish","participantID":"v20hkogaob41411wtfvqtj3jt3qf2vgx","anagrams_seen":["HNATUYG","DALRBEU","IORCNAG"],"anagrams_answers":["NAUGHTY","DURABLE","ORGANIC"]},{"rt":49721,"responses":"{\"Q0\":\"durable\"}","trial_type":"survey-text","trial_index":11,"time_elapsed":192980,"internal_node_id":"0.0-3.1-3.1-0.1","responseType":"finish","participantID":"v20hkogaob41411wtfvqtj3jt3qf2vgx","anagrams_seen":["HNATUYG","DALRBEU","IORCNAG"],"anagrams_answers":["NAUGHTY","DURABLE","ORGANIC"]},{"rt":3301,"responses":"{\"Q0\":4}","trial_type":"survey-likert","trial_index":12,"time_elapsed":196282,"internal_node_id":"0.0-3.1-4.1-0.1","responseType":"finish","participantID":"v20hkogaob41411wtfvqtj3jt3qf2vgx","anagrams_seen":["HNATUYG","DALRBEU","IORCNAG"],"anagrams_answers":["NAUGHTY","DURABLE","ORGANIC"]},{"rt":1471,"stimulus":"\u003cblockquote\u003e\n  \u003cp\u003eNow an anagram will be shown to you. \u003cbr\u003e\u003cbr\u003e Press 'v' to view the anagram.\u003c/p\u003e\n\u003c/blockquote\u003e","key_press":86,"trial_type":"html-keyboard-response","trial_index":13,"time_elapsed":197754,"internal_node_id":"0.0-3.2-0.2","responseType":"finish","participantID":"v20hkogaob41411wtfvqtj3jt3qf2vgx","anagrams_seen":["HNATUYG","DALRBEU","IORCNAG"],"anagrams_answers":["NAUGHTY","DURABLE","ORGANIC"]},{"rt":null,"stimulus":"\u003cb\u003e\u003ccenter\u003e\u003ch2\u003e\u003cp\u003eIORCNAG\u003c/p\u003e\u003c/h2\u003e\u003c/center\u003e\u003c/b\u003e","key_press":null,"trial_type":"html-keyboard-response","trial_index":14,"time_elapsed":198255,"internal_node_id":"0.0-3.2-1.2","responseType":"finish","participantID":"v20hkogaob41411wtfvqtj3jt3qf2vgx","anagrams_seen":["HNATUYG","DALRBEU","IORCNAG"],"anagrams_answers":["NAUGHTY","DURABLE","ORGANIC"]},{"rt":4003.6899999977322,"response":"3.2","stimulus":"\u003cp\u003eHow long do you think it will take you to solve this anagram?\u003c/p\u003e","trial_type":"html-slider-response","trial_index":15,"time_elapsed":202259,"internal_node_id":"0.0-3.2-2.2","responseType":"finish","participantID":"v20hkogaob41411wtfvqtj3jt3qf2vgx","anagrams_seen":["HNATUYG","DALRBEU","IORCNAG"],"anagrams_answers":["NAUGHTY","DURABLE","ORGANIC"]},{"rt":123900,"responses":"{\"Q0\":\"NEXT\"}","trial_type":"survey-text","trial_index":16,"time_elapsed":326160,"internal_node_id":"0.0-3.2-3.2-0.2","responseType":"finish","participantID":"v20hkogaob41411wtfvqtj3jt3qf2vgx","anagrams_seen":["HNATUYG","DALRBEU","IORCNAG"],"anagrams_answers":["NAUGHTY","DURABLE","ORGANIC"]},{"rt":1640,"responses":"{\"Q0\":0}","trial_type":"survey-likert","trial_index":17,"time_elapsed":327803,"internal_node_id":"0.0-3.2-4.2-0.2","responseType":"finish","participantID":"v20hkogaob41411wtfvqtj3jt3qf2vgx","anagrams_seen":["HNATUYG","DALRBEU","IORCNAG"],"anagrams_answers":["NAUGHTY","DURABLE","ORGANIC"]}],"__v":0}
{"_id":{"$oid":"5d4c6ceed0946a0004f48f3f"},"data":{"responseType":"start","participantID":"upq7sn4ew2dtcz4bvn2xh9bw07xdlml6","anagrams_seen":["SONW","SROT","PITN"],"anagrams_answers":["SNOW","SORT","PINT"]},"__v":0}
{"_id":{"$oid":"5d4c6cfdd0946a0004f48f40"},"data":[{"rt":5750,"responses":"{\"Q0\":\" I consent to participate\"}","trial_type":"survey-multi-choice","trial_index":0,"time_elapsed":5752,"internal_node_id":"0.0-0.0","responseType":"finish","participantID":"qngy0suj7s014q7gwvmz32xonb6k8n27","anagrams_seen":["IORCNAG","VLVOO","SONW"],"anagrams_answers":["ORGANIC","VOLVO","SNOW"]},{"trial_type":"call-function","trial_index":1,"time_elapsed":5755,"internal_node_id":"0.0-1.0","responseType":"finish","participantID":"qngy0suj7s014q7gwvmz32xonb6k8n27","anagrams_seen":["IORCNAG","VLVOO","SONW"],"anagrams_answers":["ORGANIC","VOLVO","SNOW"]},{"view_history":"[{\"page_index\":0,\"viewing_time\":9200},{\"page_index\":1,\"viewing_time\":12440}]","rt":21641,"trial_type":"instructions","trial_index":2,"time_elapsed":27396,"internal_node_id":"0.0-2.0","responseType":"finish","participantID":"qngy0suj7s014q7gwvmz32xonb6k8n27","anagrams_seen":["IORCNAG","VLVOO","SONW"],"anagrams_answers":["ORGANIC","VOLVO","SNOW"]},{"rt":3657,"stimulus":"\u003cblockquote\u003e\n  \u003cp\u003eNow an anagram will be shown to you. \u003cbr\u003e\u003cbr\u003e Press 'v' to view the anagram.\u003c/p\u003e\n\u003c/blockquote\u003e","key_press":86,"trial_type":"html-keyboard-response","trial_index":3,"time_elapsed":31054,"internal_node_id":"0.0-3.0-0.0","responseType":"finish","participantID":"qngy0suj7s014q7gwvmz32xonb6k8n27","anagrams_seen":["IORCNAG","VLVOO","SONW"],"anagrams_answers":["ORGANIC","VOLVO","SNOW"]},{"rt":null,"stimulus":"\u003cb\u003e\u003ccenter\u003e\u003ch2\u003e\u003cp\u003eIORCNAG\u003c/p\u003e\u003c/h2\u003e\u003c/center\u003e\u003c/b\u003e","key_press":null,"trial_type":"html-keyboard-response","trial_index":4,"time_elapsed":31565,"internal_node_id":"0.0-3.0-1.0","responseType":"finish","participantID":"qngy0suj7s014q7gwvmz32xonb6k8n27","anagrams_seen":["IORCNAG","VLVOO","SONW"],"anagrams_answers":["ORGANIC","VOLVO","SNOW"]},{"rt":5284.970000000612,"response":"0","stimulus":"\u003cp\u003eHow long do you think it will take you to solve this anagram?\u003c/p\u003e","trial_type":"html-slider-response","trial_index":5,"time_elapsed":36853,"internal_node_id":"0.0-3.0-2.0","responseType":"finish","participantID":"qngy0suj7s014q7gwvmz32xonb6k8n27","anagrams_seen":["IORCNAG","VLVOO","SONW"],"anagrams_answers":["ORGANIC","VOLVO","SNOW"]},{"rt":27748,"responses":"{\"Q0\":\"organic\"}","trial_type":"survey-text","trial_index":6,"time_elapsed":64603,"internal_node_id":"0.0-3.0-3.0-0.0","responseType":"finish","participantID":"qngy0suj7s014q7gwvmz32xonb6k8n27","anagrams_seen":["IORCNAG","VLVOO","SONW"],"anagrams_answers":["ORGANIC","VOLVO","SNOW"]},{"rt":12949,"responses":"{\"Q0\":5}","trial_type":"survey-likert","trial_index":7,"time_elapsed":77553,"internal_node_id":"0.0-3.0-4.0-0.0","responseType":"finish","participantID":"qngy0suj7s014q7gwvmz32xonb6k8n27","anagrams_seen":["IORCNAG","VLVOO","SONW"],"anagrams_answers":["ORGANIC","VOLVO","SNOW"]},{"rt":8088,"stimulus":"\u003cblockquote\u003e\n  \u003cp\u003eNow an anagram will be shown to you. \u003cbr\u003e\u003cbr\u003e Press 'v' to view the anagram.\u003c/p\u003e\n\u003c/blockquote\u003e","key_press":86,"trial_type":"html-keyboard-response","trial_index":8,"time_elapsed":85642,"internal_node_id":"0.0-3.1-0.1","responseType":"finish","participantID":"qngy0suj7s014q7gwvmz32xonb6k8n27","anagrams_seen":["IORCNAG","VLVOO","SONW"],"anagrams_answers":["ORGANIC","VOLVO","SNOW"]},{"rt":null,"stimulus":"\u003cb\u003e\u003ccenter\u003e\u003ch2\u003e\u003cp\u003eVLVOO\u003c/p\u003e\u003c/h2\u003e\u003c/center\u003e\u003c/b\u003e","key_press":null,"trial_type":"html-keyboard-response","trial_index":9,"time_elapsed":86145,"internal_node_id":"0.0-3.1-1.1","responseType":"finish","participantID":"qngy0suj7s014q7gwvmz32xonb6k8n27","anagrams_seen":["IORCNAG","VLVOO","SONW"],"anagrams_answers":["ORGANIC","VOLVO","SNOW"]},{"rt":2357.70500000217,"response":"0","stimulus":"\u003cp\u003eHow long do you think it will take you to solve this anagram?\u003c/p\u003e","trial_type":"html-slider-response","trial_index":10,"time_elapsed":88505,"internal_node_id":"0.0-3.1-2.1","responseType":"finish","participantID":"qngy0suj7s014q7gwvmz32xonb6k8n27","anagrams_seen":["IORCNAG","VLVOO","SONW"],"anagrams_answers":["ORGANIC","VOLVO","SNOW"]},{"rt":4979,"responses":"{\"Q0\":\"volvo\"}","trial_type":"survey-text","trial_index":11,"time_elapsed":93485,"internal_node_id":"0.0-3.1-3.1-0.1","responseType":"finish","participantID":"qngy0suj7s014q7gwvmz32xonb6k8n27","anagrams_seen":["IORCNAG","VLVOO","SONW"],"anagrams_answers":["ORGANIC","VOLVO","SNOW"]},{"rt":3158,"responses":"{\"Q0\":0}","trial_type":"survey-likert","trial_index":12,"time_elapsed":96644,"internal_node_id":"0.0-3.1-4.1-0.1","responseType":"finish","participantID":"qngy0suj7s014q7gwvmz32xonb6k8n27","anagrams_seen":["IORCNAG","VLVOO","SONW"],"anagrams_answers":["ORGANIC","VOLVO","SNOW"]},{"rt":1133,"stimulus":"\u003cblockquote\u003e\n  \u003cp\u003eNow an anagram will be shown to you. \u003cbr\u003e\u003cbr\u003e Press 'v' to view the anagram.\u003c/p\u003e\n\u003c/blockquote\u003e","key_press":86,"trial_type":"html-keyboard-response","trial_index":13,"time_elapsed":97778,"internal_node_id":"0.0-3.2-0.2","responseType":"finish","participantID":"qngy0suj7s014q7gwvmz32xonb6k8n27","anagrams_seen":["IORCNAG","VLVOO","SONW"],"anagrams_answers":["ORGANIC","VOLVO","SNOW"]},{"rt":null,"stimulus":"\u003cb\u003e\u003ccenter\u003e\u003ch2\u003e\u003cp\u003eSONW\u003c/p\u003e\u003c/h2\u003e\u003c/center\u003e\u003c/b\u003e","key_press":null,"trial_type":"html-keyboard-response","trial_index":14,"time_elapsed":98281,"internal_node_id":"0.0-3.2-1.2","responseType":"finish","participantID":"qngy0suj7s014q7gwvmz32xonb6k8n27","anagrams_seen":["IORCNAG","VLVOO","SONW"],"anagrams_answers":["ORGANIC","VOLVO","SNOW"]},{"rt":1937.8599999981816,"response":"0","stimulus":"\u003cp\u003eHow long do you think it will take you to solve this anagram?\u003c/p\u003e","trial_type":"html-slider-response","trial_index":15,"time_elapsed":100220,"internal_node_id":"0.0-3.2-2.2","responseType":"finish","participantID":"qngy0suj7s014q7gwvmz32xonb6k8n27","anagrams_seen":["IORCNAG","VLVOO","SONW"],"anagrams_answers":["ORGANIC","VOLVO","SNOW"]},{"rt":3129,"responses":"{\"Q0\":\"snow\"}","trial_type":"survey-text","trial_index":16,"time_elapsed":103350,"internal_node_id":"0.0-3.2-3.2-0.2","responseType":"finish","participantID":"qngy0suj7s014q7gwvmz32xonb6k8n27","anagrams_seen":["IORCNAG","VLVOO","SONW"],"anagrams_answers":["ORGANIC","VOLVO","SNOW"]},{"rt":1895,"responses":"{\"Q0\":0}","trial_type":"survey-likert","trial_index":17,"time_elapsed":105246,"internal_node_id":"0.0-3.2-4.2-0.2","responseType":"finish","participantID":"qngy0suj7s014q7gwvmz32xonb6k8n27","anagrams_seen":["IORCNAG","VLVOO","SONW"],"anagrams_answers":["ORGANIC","VOLVO","SNOW"]}],"__v":0}
