{"_id":{"$oid":"5d6728e977e5be0004e134c9"},"data":{"responseType":"start","participantID":"z3y3j800a2sap4ku5afag8vle392vhl1","anagrams_seen":["PREOK","BLEL","RECKL"],"anagrams_answers":["POKER","BELL","CLERK"]},"__v":0}
{"_id":{"$oid":"5d6728ee77e5be0004e134ca"},"data":{"responseType":"start","participantID":"n36b5oo9kqjratj1mxxppvrud7vpkmou","anagrams_seen":["KHAOMCM","SROT","PITN"],"anagrams_answers":["HAMMOCK","SORT","PINT"]},"__v":0}
{"_id":{"$oid":"5d6728f477e5be0004e134cb"},"data":{"responseType":"start","participantID":"eegbm1cjrne4fyocv68l62qyo1oa712u","anagrams_seen":["DALRBEU","PREOK","YJAKWLA"],"anagrams_answers":["DURABLE","POKER","JAYWALK"]},"__v":0}
{"_id":{"$oid":"5d6728f877e5be0004e134cc"},"data":{"responseType":"start","participantID":"putpxypml2t8pvunygutn5wxhb2uzsbr","anagrams_seen":["DALRBEU","PITN","BLEL"],"anagrams_answers":["DURABLE","PINT","BELL"]},"__v":0}
{"_id":{"$oid":"5d67290877e5be0004e134cd"},"data":{"responseType":"start","participantID":"v3zzfru0ghwd8qjlhxv99ezdln7xbuw5","anagrams_seen":["PITN","BLEL","SSOIA"],"anagrams_answers":["PINT","BELL","OASIS"]},"__v":0}
{"_id":{"$oid":"5d67291c77e5be0004e134ce"},"data":{"responseType":"start","participantID":"hjtt8oj98hyp89oj6leq58qugy58eayq","anagrams_seen":["RECKL","SROT","SONW"],"anagrams_answers":["CLERK","SORT","SNOW"]},"__v":0}
{"_id":{"$oid":"5d67291f77e5be0004e134cf"},"data":{"responseType":"start","participantID":"mq6rknn28hnx5hr4sp6hrco2kpmlojjq","anagrams_seen":["BLEL","SSOIA","DALRBEU"],"anagrams_answers":["BELL","OASIS","DURABLE"]},"__v":0}
{"_id":{"$oid":"5d67292077e5be0004e134d0"},"data":{"responseType":"start","participantID":"4qklxuvz9792qn7yx5p8s4kd58d0zu1f","anagrams_seen":["SROT","PREOK","IORCNAG"],"anagrams_answers":["SORT","POKER","ORGANIC"]},"__v":0}
{"_id":{"$oid":"5d67292f77e5be0004e134d1"},"data":{"responseType":"start","participantID":"ec0w77rqyq8b7g78u56gyvbub8bdcqqn","anagrams_seen":["SSOIA","IORCNAG","YJAKWLA"],"anagrams_answers":["OASIS","ORGANIC","JAYWALK"]},"__v":0}
{"_id":{"$oid":"5d67295377e5be0004e134d2"},"data":[{"rt":7837,"responses":"{\"Q0\":\" I consent to participate\"}","trial_type":"survey-multi-choice","trial_index":0,"time_elapsed":7851,"internal_node_id":"0.0-0.0","responseType":"finish","participantID":"v3zzfru0ghwd8qjlhxv99ezdln7xbuw5","anagrams_seen":["PITN","BLEL","SSOIA"],"anagrams_answers":["PINT","BELL","OASIS"]},{"trial_type":"call-function","trial_index":1,"time_elapsed":7869,"internal_node_id":"0.0-1.0","responseType":"finish","participantID":"v3zzfru0ghwd8qjlhxv99ezdln7xbuw5","anagrams_seen":["PITN","BLEL","SSOIA"],"anagrams_answers":["PINT","BELL","OASIS"]},{"view_history":"[{\"page_index\":0,\"viewing_time\":13671},{\"page_index\":1,\"viewing_time\":9832},{\"page_index\":2,\"viewing_time\":6730}]","rt":30235,"trial_type":"instructions","trial_index":2,"time_elapsed":38106,"internal_node_id":"0.0-2.0","responseType":"finish","participantID":"v3zzfru0ghwd8qjlhxv99ezdln7xbuw5","anagrams_seen":["PITN","BLEL","SSOIA"],"anagrams_answers":["PINT","BELL","OASIS"]},{"rt":2108,"stimulus":"\u003cblockquote\u003e\n  \u003cp\u003eNow the next anagram will be shown to you. \u003cbr\u003e\u003cbr\u003e Press 'v' to view the anagram.\u003c/p\u003e\n\u003c/blockquote\u003e","key_press":86,"trial_type":"html-keyboard-response","trial_index":3,"time_elapsed":40216,"internal_node_id":"0.0-3.0-0.0","responseType":"finish","participantID":"v3zzfru0ghwd8qjlhxv99ezdln7xbuw5","anagrams_seen":["PITN","BLEL","SSOIA"],"anagrams_answers":["PINT","BELL","OASIS"]},{"rt":null,"stimulus":"\u003cb\u003e\u003ccenter\u003e\u003ch2\u003e\u003cp\u003ePITN\u003c/p\u003e\u003c/h2\u003e\u003c/center\u003e\u003c/b\u003e","key_press":null,"trial_type":"html-keyboard-response","trial_index":4,"time_elapsed":42236,"internal_node_id":"0.0-3.0-1.0","responseType":"finish","participantID":"v3zzfru0ghwd8qjlhxv99ezdln7xbuw5","anagrams_seen":["PITN","BLEL","SSOIA"],"anagrams_answers":["PINT","BELL","OASIS"]},{"rt":5406,"stimulus":"\u003cp\u003e \u003ccenter\u003e How close are you towards solving this anagram?  \u003c/center\u003e \u003c/p\u003e","key_press":48,"trial_type":"html-keyboard-response","trial_index":5,"time_elapsed":47645,"internal_node_id":"0.0-3.0-2.0-0.0","responseType":"finish","participantID":"v3zzfru0ghwd8qjlhxv99ezdln7xbuw5","anagrams_seen":["PITN","BLEL","SSOIA"],"anagrams_answers":["PINT","BELL","OASIS"]},{"rt":2098,"responses":"{\"Q0\":\"pint\"}","conditions":"{\"Questions\":{\"Q_0\":\"\u003csmall\u003e\u003cp\u003eType your answer below:\u003c/p\u003e\u003c/small\u003e\"}}","trial_type":"survey-text-2","trial_index":6,"time_elapsed":49755,"internal_node_id":"0.0-3.0-2.0-1.0","responseType":"finish","participantID":"v3zzfru0ghwd8qjlhxv99ezdln7xbuw5","anagrams_seen":["PITN","BLEL","SSOIA"],"anagrams_answers":["PINT","BELL","OASIS"]},{"rt":1223,"stimulus":"\u003cblockquote\u003e\n  \u003cp\u003eCorrect answer! \u003cbr\u003e\u003cbr\u003e Press 'v' to continue.\u003c/p\u003e\n\u003c/blockquote\u003e","key_press":86,"trial_type":"html-keyboard-response","trial_index":7,"time_elapsed":50987,"internal_node_id":"0.0-3.0-3.0","responseType":"finish","participantID":"v3zzfru0ghwd8qjlhxv99ezdln7xbuw5","anagrams_seen":["PITN","BLEL","SSOIA"],"anagrams_answers":["PINT","BELL","OASIS"]},{"rt":6905,"responses":"{\"Q0\":9}","trial_type":"survey-likert","trial_index":8,"time_elapsed":57899,"internal_node_id":"0.0-3.0-4.0-0.0","responseType":"finish","participantID":"v3zzfru0ghwd8qjlhxv99ezdln7xbuw5","anagrams_seen":["PITN","BLEL","SSOIA"],"anagrams_answers":["PINT","BELL","OASIS"]},{"rt":1717,"stimulus":"\u003cblockquote\u003e\n  \u003cp\u003eNow the next anagram will be shown to you. \u003cbr\u003e\u003cbr\u003e Press 'v' to view the anagram.\u003c/p\u003e\n\u003c/blockquote\u003e","key_press":86,"trial_type":"html-keyboard-response","trial_index":9,"time_elapsed":59619,"internal_node_id":"0.0-3.1-0.1","responseType":"finish","participantID":"v3zzfru0ghwd8qjlhxv99ezdln7xbuw5","anagrams_seen":["PITN","BLEL","SSOIA"],"anagrams_answers":["PINT","BELL","OASIS"]},{"rt":null,"stimulus":"\u003cb\u003e\u003ccenter\u003e\u003ch2\u003e\u003cp\u003eBLEL\u003c/p\u003e\u003c/h2\u003e\u003c/center\u003e\u003c/b\u003e","key_press":null,"trial_type":"html-keyboard-response","trial_index":10,"time_elapsed":61625,"internal_node_id":"0.0-3.1-1.1","responseType":"finish","participantID":"v3zzfru0ghwd8qjlhxv99ezdln7xbuw5","anagrams_seen":["PITN","BLEL","SSOIA"],"anagrams_answers":["PINT","BELL","OASIS"]},{"rt":751,"stimulus":"\u003cp\u003e \u003ccenter\u003e How close are you towards solving this anagram?  \u003c/center\u003e \u003c/p\u003e","key_press":57,"trial_type":"html-keyboard-response","trial_index":11,"time_elapsed":62377,"internal_node_id":"0.0-3.1-2.1-0.1","responseType":"finish","participantID":"v3zzfru0ghwd8qjlhxv99ezdln7xbuw5","anagrams_seen":["PITN","BLEL","SSOIA"],"anagrams_answers":["PINT","BELL","OASIS"]},{"rt":1513,"responses":"{\"Q0\":\"bell\"}","conditions":"{\"Questions\":{\"Q_0\":\"\u003csmall\u003e\u003cp\u003eType your answer below:\u003c/p\u003e\u003c/small\u003e\"}}","trial_type":"survey-text-2","trial_index":12,"time_elapsed":63904,"internal_node_id":"0.0-3.1-2.1-1.1","responseType":"finish","participantID":"v3zzfru0ghwd8qjlhxv99ezdln7xbuw5","anagrams_seen":["PITN","BLEL","SSOIA"],"anagrams_answers":["PINT","BELL","OASIS"]},{"rt":1160,"stimulus":"\u003cblockquote\u003e\n  \u003cp\u003eCorrect answer! \u003cbr\u003e\u003cbr\u003e Press 'v' to continue.\u003c/p\u003e\n\u003c/blockquote\u003e","key_press":86,"trial_type":"html-keyboard-response","trial_index":13,"time_elapsed":65067,"internal_node_id":"0.0-3.1-3.1","responseType":"finish","participantID":"v3zzfru0ghwd8qjlhxv99ezdln7xbuw5","anagrams_seen":["PITN","BLEL","SSOIA"],"anagrams_answers":["PINT","BELL","OASIS"]},{"rt":3271,"responses":"{\"Q0\":4}","trial_type":"survey-likert","trial_index":14,"time_elapsed":68342,"internal_node_id":"0.0-3.1-4.1-0.1","responseType":"finish","participantID":"v3zzfru0ghwd8qjlhxv99ezdln7xbuw5","anagrams_seen":["PITN","BLEL","SSOIA"],"anagrams_answers":["PINT","BELL","OASIS"]},{"rt":881,"stimulus":"\u003cblockquote\u003e\n  \u003cp\u003eNow the next anagram will be shown to you. \u003cbr\u003e\u003cbr\u003e Press 'v' to view the anagram.\u003c/p\u003e\n\u003c/blockquote\u003e","key_press":86,"trial_type":"html-keyboard-response","trial_index":15,"time_elapsed":69228,"internal_node_id":"0.0-3.2-0.2","responseType":"finish","participantID":"v3zzfru0ghwd8qjlhxv99ezdln7xbuw5","anagrams_seen":["PITN","BLEL","SSOIA"],"anagrams_answers":["PINT","BELL","OASIS"]},{"rt":null,"stimulus":"\u003cb\u003e\u003ccenter\u003e\u003ch2\u003e\u003cp\u003eSSOIA\u003c/p\u003e\u003c/h2\u003e\u003c/center\u003e\u003c/b\u003e","key_press":null,"trial_type":"html-keyboard-response","trial_index":16,"time_elapsed":71231,"internal_node_id":"0.0-3.2-1.2","responseType":"finish","participantID":"v3zzfru0ghwd8qjlhxv99ezdln7xbuw5","anagrams_seen":["PITN","BLEL","SSOIA"],"anagrams_answers":["PINT","BELL","OASIS"]},{"rt":1344,"stimulus":"\u003cp\u003e \u003ccenter\u003e How close are you towards solving this anagram?  \u003c/center\u003e \u003c/p\u003e","key_press":48,"trial_type":"html-keyboard-response","trial_index":17,"time_elapsed":72578,"internal_node_id":"0.0-3.2-2.2-0.2","responseType":"finish","participantID":"v3zzfru0ghwd8qjlhxv99ezdln7xbuw5","anagrams_seen":["PITN","BLEL","SSOIA"],"anagrams_answers":["PINT","BELL","OASIS"]},{"rt":5502,"responses":"{\"Q0\":\"oasis\"}","conditions":"{\"Questions\":{\"Q_0\":\"\u003csmall\u003e\u003cp\u003eType your answer below:\u003c/p\u003e\u003c/small\u003e\"}}","trial_type":"survey-text-2","trial_index":18,"time_elapsed":78092,"internal_node_id":"0.0-3.2-2.2-1.2","responseType":"finish","participantID":"v3zzfru0ghwd8qjlhxv99ezdln7xbuw5","anagrams_seen":["PITN","BLEL","SSOIA"],"anagrams_answers":["PINT","BELL","OASIS"]},{"rt":1440,"stimulus":"\u003cblockquote\u003e\n  \u003cp\u003eCorrect answer! \u003cbr\u003e\u003cbr\u003e Press 'v' to continue.\u003c/p\u003e\n\u003c/blockquote\u003e","key_press":86,"trial_type":"html-keyboard-response","trial_index":19,"time_elapsed":79535,"internal_node_id":"0.0-3.2-3.2","responseType":"finish","participantID":"v3zzfru0ghwd8qjlhxv99ezdln7xbuw5","anagrams_seen":["PITN","BLEL","SSOIA"],"anagrams_answers":["PINT","BELL","OASIS"]},{"rt":3888,"responses":"{\"Q0\":0}","trial_type":"survey-likert","trial_index":20,"time_elapsed":83428,"internal_node_id":"0.0-3.2-4.2-0.2","responseType":"finish","participantID":"v3zzfru0ghwd8qjlhxv99ezdln7xbuw5","anagrams_seen":["PITN","BLEL","SSOIA"],"anagrams_answers":["PINT","BELL","OASIS"]}],"__v":0}
{"_id":{"$oid":"5d67295577e5be0004e134d3"},"data":[{"rt":4026,"responses":"{\"Q0\":\" I consent to participate\"}","trial_type":"survey-multi-choice","trial_index":0,"time_elapsed":4031,"internal_node_id":"0.0-0.0","responseType":"finish","participantID":"n36b5oo9kqjratj1mxxppvrud7vpkmou","anagrams_seen":["KHAOMCM","SROT","PITN"],"anagrams_answers":["HAMMOCK","SORT","PINT"]},{"trial_type":"call-function","trial_index":1,"time_elapsed":4037,"internal_node_id":"0.0-1.0","responseType":"finish","participantID":"n36b5oo9kqjratj1mxxppvrud7vpkmou","anagrams_seen":["KHAOMCM","SROT","PITN"],"anagrams_answers":["HAMMOCK","SORT","PINT"]},{"view_history":"[{\"page_index\":0,\"viewing_time\":8822},{\"page_index\":1,\"viewing_time\":11236},{\"page_index\":2,\"viewing_time\":8598}]","rt":28657,"trial_type":"instructions","trial_index":2,"time_elapsed":32695,"internal_node_id":"0.0-2.0","responseType":"finish","participantID":"n36b5oo9kqjratj1mxxppvrud7vpkmou","anagrams_seen":["KHAOMCM","SROT","PITN"],"anagrams_answers":["HAMMOCK","SORT","PINT"]},{"rt":3149,"stimulus":"\u003cblockquote\u003e\n  \u003cp\u003eNow the next anagram will be shown to you. \u003cbr\u003e\u003cbr\u003e Press 'v' to view the anagram.\u003c/p\u003e\n\u003c/blockquote\u003e","key_press":86,"trial_type":"html-keyboard-response","trial_index":3,"time_elapsed":35845,"internal_node_id":"0.0-3.0-0.0","responseType":"finish","participantID":"n36b5oo9kqjratj1mxxppvrud7vpkmou","anagrams_seen":["KHAOMCM","SROT","PITN"],"anagrams_answers":["HAMMOCK","SORT","PINT"]},{"rt":null,"stimulus":"\u003cb\u003e\u003ccenter\u003e\u003ch2\u003e\u003cp\u003eKHAOMCM\u003c/p\u003e\u003c/h2\u003e\u003c/center\u003e\u003c/b\u003e","key_press":null,"trial_type":"html-keyboard-response","trial_index":4,"time_elapsed":37849,"internal_node_id":"0.0-3.0-1.0","responseType":"finish","participantID":"n36b5oo9kqjratj1mxxppvrud7vpkmou","anagrams_seen":["KHAOMCM","SROT","PITN"],"anagrams_answers":["HAMMOCK","SORT","PINT"]},{"rt":5471,"stimulus":"\u003cp\u003e \u003ccenter\u003e How close are you towards solving this anagram?  \u003c/center\u003e \u003c/p\u003e","key_press":48,"trial_type":"html-keyboard-response","trial_index":5,"time_elapsed":43321,"internal_node_id":"0.0-3.0-2.0-0.0","responseType":"finish","participantID":"n36b5oo9kqjratj1mxxppvrud7vpkmou","anagrams_seen":["KHAOMCM","SROT","PITN"],"anagrams_answers":["HAMMOCK","SORT","PINT"]},{"rt":20001,"responses":"{\"Q0\":\"\"}","trial_type":"survey-text-2","trial_index":6,"time_elapsed":63331,"internal_node_id":"0.0-3.0-2.0-1.0","responseType":"finish","participantID":"n36b5oo9kqjratj1mxxppvrud7vpkmou","anagrams_seen":["KHAOMCM","SROT","PITN"],"anagrams_answers":["HAMMOCK","SORT","PINT"]},{"rt":2731,"stimulus":"\u003cp\u003e \u003ccenter\u003e How close are you now? \u003c/center\u003e \u003c/p\u003e","key_press":55,"trial_type":"html-keyboard-response","trial_index":7,"time_elapsed":66064,"internal_node_id":"0.0-3.0-2.1-0.1","responseType":"finish","participantID":"n36b5oo9kqjratj1mxxppvrud7vpkmou","anagrams_seen":["KHAOMCM","SROT","PITN"],"anagrams_answers":["HAMMOCK","SORT","PINT"]},{"rt":4698,"responses":"{\"Q0\":\"hammock\"}","conditions":"{\"Questions\":{\"Q_0\":\"\u003csmall\u003e\u003cp\u003eType your answer below:\u003c/p\u003e\u003c/small\u003e\"}}","trial_type":"survey-text-2","trial_index":8,"time_elapsed":70765,"internal_node_id":"0.0-3.0-2.1-1.1","responseType":"finish","participantID":"n36b5oo9kqjratj1mxxppvrud7vpkmou","anagrams_seen":["KHAOMCM","SROT","PITN"],"anagrams_answers":["HAMMOCK","SORT","PINT"]},{"rt":1431,"stimulus":"\u003cblockquote\u003e\n  \u003cp\u003eCorrect answer! \u003cbr\u003e\u003cbr\u003e Press 'v' to continue.\u003c/p\u003e\n\u003c/blockquote\u003e","key_press":86,"trial_type":"html-keyboard-response","trial_index":9,"time_elapsed":72199,"internal_node_id":"0.0-3.0-3.0","responseType":"finish","participantID":"n36b5oo9kqjratj1mxxppvrud7vpkmou","anagrams_seen":["KHAOMCM","SROT","PITN"],"anagrams_answers":["HAMMOCK","SORT","PINT"]},{"rt":6128,"responses":"{\"Q0\":9}","trial_type":"survey-likert","trial_index":10,"time_elapsed":78329,"internal_node_id":"0.0-3.0-4.0-0.0","responseType":"finish","participantID":"n36b5oo9kqjratj1mxxppvrud7vpkmou","anagrams_seen":["KHAOMCM","SROT","PITN"],"anagrams_answers":["HAMMOCK","SORT","PINT"]},{"rt":1424,"stimulus":"\u003cblockquote\u003e\n  \u003cp\u003eNow the next anagram will be shown to you. \u003cbr\u003e\u003cbr\u003e Press 'v' to view the anagram.\u003c/p\u003e\n\u003c/blockquote\u003e","key_press":86,"trial_type":"html-keyboard-response","trial_index":11,"time_elapsed":79754,"internal_node_id":"0.0-3.1-0.1","responseType":"finish","participantID":"n36b5oo9kqjratj1mxxppvrud7vpkmou","anagrams_seen":["KHAOMCM","SROT","PITN"],"anagrams_answers":["HAMMOCK","SORT","PINT"]},{"rt":null,"stimulus":"\u003cb\u003e\u003ccenter\u003e\u003ch2\u003e\u003cp\u003eSROT\u003c/p\u003e\u003c/h2\u003e\u003c/center\u003e\u003c/b\u003e","key_press":null,"trial_type":"html-keyboard-response","trial_index":12,"time_elapsed":81755,"internal_node_id":"0.0-3.1-1.1","responseType":"finish","participantID":"n36b5oo9kqjratj1mxxppvrud7vpkmou","anagrams_seen":["KHAOMCM","SROT","PITN"],"anagrams_answers":["HAMMOCK","SORT","PINT"]},{"rt":1639,"stimulus":"\u003cp\u003e \u003ccenter\u003e How close are you towards solving this anagram?  \u003c/center\u003e \u003c/p\u003e","key_press":57,"trial_type":"html-keyboard-response","trial_index":13,"time_elapsed":83395,"internal_node_id":"0.0-3.1-2.2-0.2","responseType":"finish","participantID":"n36b5oo9kqjratj1mxxppvrud7vpkmou","anagrams_seen":["KHAOMCM","SROT","PITN"],"anagrams_answers":["HAMMOCK","SORT","PINT"]},{"rt":8027,"responses":"{\"Q0\":\"sort\"}","conditions":"{\"Questions\":{\"Q_0\":\"\u003csmall\u003e\u003cp\u003eType your answer below:\u003c/p\u003e\u003c/small\u003e\"}}","trial_type":"survey-text-2","trial_index":14,"time_elapsed":91425,"internal_node_id":"0.0-3.1-2.2-1.2","responseType":"finish","participantID":"n36b5oo9kqjratj1mxxppvrud7vpkmou","anagrams_seen":["KHAOMCM","SROT","PITN"],"anagrams_answers":["HAMMOCK","SORT","PINT"]},{"rt":1421,"stimulus":"\u003cblockquote\u003e\n  \u003cp\u003eCorrect answer! \u003cbr\u003e\u003cbr\u003e Press 'v' to continue.\u003c/p\u003e\n\u003c/blockquote\u003e","key_press":86,"trial_type":"html-keyboard-response","trial_index":15,"time_elapsed":92847,"internal_node_id":"0.0-3.1-3.1","responseType":"finish","participantID":"n36b5oo9kqjratj1mxxppvrud7vpkmou","anagrams_seen":["KHAOMCM","SROT","PITN"],"anagrams_answers":["HAMMOCK","SORT","PINT"]},{"rt":3006,"responses":"{\"Q0\":2}","trial_type":"survey-likert","trial_index":16,"time_elapsed":95854,"internal_node_id":"0.0-3.1-4.1-0.1","responseType":"finish","participantID":"n36b5oo9kqjratj1mxxppvrud7vpkmou","anagrams_seen":["KHAOMCM","SROT","PITN"],"anagrams_answers":["HAMMOCK","SORT","PINT"]},{"rt":1176,"stimulus":"\u003cblockquote\u003e\n  \u003cp\u003eNow the next anagram will be shown to you. \u003cbr\u003e\u003cbr\u003e Press 'v' to view the anagram.\u003c/p\u003e\n\u003c/blockquote\u003e","key_press":86,"trial_type":"html-keyboard-response","trial_index":17,"time_elapsed":97031,"internal_node_id":"0.0-3.2-0.2","responseType":"finish","participantID":"n36b5oo9kqjratj1mxxppvrud7vpkmou","anagrams_seen":["KHAOMCM","SROT","PITN"],"anagrams_answers":["HAMMOCK","SORT","PINT"]},{"rt":null,"stimulus":"\u003cb\u003e\u003ccenter\u003e\u003ch2\u003e\u003cp\u003ePITN\u003c/p\u003e\u003c/h2\u003e\u003c/center\u003e\u003c/b\u003e","key_press":null,"trial_type":"html-keyboard-response","trial_index":18,"time_elapsed":99033,"internal_node_id":"0.0-3.2-1.2","responseType":"finish","participantID":"n36b5oo9kqjratj1mxxppvrud7vpkmou","anagrams_seen":["KHAOMCM","SROT","PITN"],"anagrams_answers":["HAMMOCK","SORT","PINT"]},{"rt":1466,"stimulus":"\u003cp\u003e \u003ccenter\u003e How close are you towards solving this anagram?  \u003c/center\u003e \u003c/p\u003e","key_press":57,"trial_type":"html-keyboard-response","trial_index":19,"time_elapsed":100499,"internal_node_id":"0.0-3.2-2.3-0.3","responseType":"finish","participantID":"n36b5oo9kqjratj1mxxppvrud7vpkmou","anagrams_seen":["KHAOMCM","SROT","PITN"],"anagrams_answers":["HAMMOCK","SORT","PINT"]},{"rt":2852,"responses":"{\"Q0\":\"pint\"}","conditions":"{\"Questions\":{\"Q_0\":\"\u003csmall\u003e\u003cp\u003eType your answer below:\u003c/p\u003e\u003c/small\u003e\"}}","trial_type":"survey-text-2","trial_index":20,"time_elapsed":103357,"internal_node_id":"0.0-3.2-2.3-1.3","responseType":"finish","participantID":"n36b5oo9kqjratj1mxxppvrud7vpkmou","anagrams_seen":["KHAOMCM","SROT","PITN"],"anagrams_answers":["HAMMOCK","SORT","PINT"]},{"rt":1574,"stimulus":"\u003cblockquote\u003e\n  \u003cp\u003eCorrect answer! \u003cbr\u003e\u003cbr\u003e Press 'v' to continue.\u003c/p\u003e\n\u003c/blockquote\u003e","key_press":86,"trial_type":"html-keyboard-response","trial_index":21,"time_elapsed":104932,"internal_node_id":"0.0-3.2-3.2","responseType":"finish","participantID":"n36b5oo9kqjratj1mxxppvrud7vpkmou","anagrams_seen":["KHAOMCM","SROT","PITN"],"anagrams_answers":["HAMMOCK","SORT","PINT"]},{"rt":2598,"responses":"{\"Q0\":4}","trial_type":"survey-likert","trial_index":22,"time_elapsed":107532,"internal_node_id":"0.0-3.2-4.2-0.2","responseType":"finish","participantID":"n36b5oo9kqjratj1mxxppvrud7vpkmou","anagrams_seen":["KHAOMCM","SROT","PITN"],"anagrams_answers":["HAMMOCK","SORT","PINT"]}],"__v":0}
{"_id":{"$oid":"5d67296377e5be0004e134d4"},"data":[{"rt":3931,"responses":"{\"Q0\":\" I consent to participate\"}","trial_type":"survey-multi-choice","trial_index":0,"time_elapsed":3936,"internal_node_id":"0.0-0.0","responseType":"finish","participantID":"eegbm1cjrne4fyocv68l62qyo1oa712u","anagrams_seen":["DALRBEU","PREOK","YJAKWLA"],"anagrams_answers":["DURABLE","POKER","JAYWALK"]},{"trial_type":"call-function","trial_index":1,"time_elapsed":3940,"internal_node_id":"0.0-1.0","responseType":"finish","participantID":"eegbm1cjrne4fyocv68l62qyo1oa712u","anagrams_seen":["DALRBEU","PREOK","YJAKWLA"],"anagrams_answers":["DURABLE","POKER","JAYWALK"]},{"view_history":"[{\"page_index\":0,\"viewing_time\":3472},{\"page_index\":1,\"viewing_time\":2237},{\"page_index\":2,\"viewing_time\":1482}]","rt":7192,"trial_type":"instructions","trial_index":2,"time_elapsed":11133,"internal_node_id":"0.0-2.0","responseType":"finish","participantID":"eegbm1cjrne4fyocv68l62qyo1oa712u","anagrams_seen":["DALRBEU","PREOK","YJAKWLA"],"anagrams_answers":["DURABLE","POKER","JAYWALK"]},{"rt":1544,"stimulus":"\u003cblockquote\u003e\n  \u003cp\u003eNow the next anagram will be shown to you. \u003cbr\u003e\u003cbr\u003e Press 'v' to view the anagram.\u003c/p\u003e\n\u003c/blockquote\u003e","key_press":86,"trial_type":"html-keyboard-response","trial_index":3,"time_elapsed":12678,"internal_node_id":"0.0-3.0-0.0","responseType":"finish","participantID":"eegbm1cjrne4fyocv68l62qyo1oa712u","anagrams_seen":["DALRBEU","PREOK","YJAKWLA"],"anagrams_answers":["DURABLE","POKER","JAYWALK"]},{"rt":null,"stimulus":"\u003cb\u003e\u003ccenter\u003e\u003ch2\u003e\u003cp\u003eDALRBEU\u003c/p\u003e\u003c/h2\u003e\u003c/center\u003e\u003c/b\u003e","key_press":null,"trial_type":"html-keyboard-response","trial_index":4,"time_elapsed":14688,"internal_node_id":"0.0-3.0-1.0","responseType":"finish","participantID":"eegbm1cjrne4fyocv68l62qyo1oa712u","anagrams_seen":["DALRBEU","PREOK","YJAKWLA"],"anagrams_answers":["DURABLE","POKER","JAYWALK"]},{"rt":3542,"stimulus":"\u003cp\u003e \u003ccenter\u003e How close are you towards solving this anagram?  \u003c/center\u003e \u003c/p\u003e","key_press":48,"trial_type":"html-keyboard-response","trial_index":5,"time_elapsed":18231,"internal_node_id":"0.0-3.0-2.0-0.0","responseType":"finish","participantID":"eegbm1cjrne4fyocv68l62qyo1oa712u","anagrams_seen":["DALRBEU","PREOK","YJAKWLA"],"anagrams_answers":["DURABLE","POKER","JAYWALK"]},{"rt":20001,"responses":"{\"Q0\":\"bualder\"}","trial_type":"survey-text-2","trial_index":6,"time_elapsed":38237,"internal_node_id":"0.0-3.0-2.0-1.0","responseType":"finish","participantID":"eegbm1cjrne4fyocv68l62qyo1oa712u","anagrams_seen":["DALRBEU","PREOK","YJAKWLA"],"anagrams_answers":["DURABLE","POKER","JAYWALK"]},{"rt":2877,"stimulus":"\u003cp\u003e \u003ccenter\u003e How close are you now? \u003c/center\u003e \u003c/p\u003e","key_press":49,"trial_type":"html-keyboard-response","trial_index":7,"time_elapsed":41116,"internal_node_id":"0.0-3.0-2.1-0.1","responseType":"finish","participantID":"eegbm1cjrne4fyocv68l62qyo1oa712u","anagrams_seen":["DALRBEU","PREOK","YJAKWLA"],"anagrams_answers":["DURABLE","POKER","JAYWALK"]},{"rt":20001,"responses":"{\"Q0\":\"bualder\"}","trial_type":"survey-text-2","trial_index":8,"time_elapsed":61120,"internal_node_id":"0.0-3.0-2.1-1.1","responseType":"finish","participantID":"eegbm1cjrne4fyocv68l62qyo1oa712u","anagrams_seen":["DALRBEU","PREOK","YJAKWLA"],"anagrams_answers":["DURABLE","POKER","JAYWALK"]},{"rt":1810,"stimulus":"\u003cp\u003e \u003ccenter\u003e How close are you now? \u003c/center\u003e \u003c/p\u003e","key_press":49,"trial_type":"html-keyboard-response","trial_index":9,"time_elapsed":62931,"internal_node_id":"0.0-3.0-2.2-0.2","responseType":"finish","participantID":"eegbm1cjrne4fyocv68l62qyo1oa712u","anagrams_seen":["DALRBEU","PREOK","YJAKWLA"],"anagrams_answers":["DURABLE","POKER","JAYWALK"]},{"rt":17402,"responses":"{\"Q0\":\"NEXT\"}","conditions":"{\"Questions\":{\"Q_0\":\"\u003csmall\u003e\u003cp\u003eType your answer below:\u003c/p\u003e\u003c/small\u003e\"}}","trial_type":"survey-text-2","trial_index":10,"time_elapsed":80336,"internal_node_id":"0.0-3.0-2.2-1.2","responseType":"finish","participantID":"eegbm1cjrne4fyocv68l62qyo1oa712u","anagrams_seen":["DALRBEU","PREOK","YJAKWLA"],"anagrams_answers":["DURABLE","POKER","JAYWALK"]},{"rt":1705,"stimulus":"\u003cblockquote\u003e\n  \u003cp\u003eYou chose to move to the next anagram. \u003cbr\u003e\u003cbr\u003e Press 'v' to continue.\u003c/p\u003e\n\u003c/blockquote\u003e","key_press":86,"trial_type":"html-keyboard-response","trial_index":11,"time_elapsed":82043,"internal_node_id":"0.0-3.0-3.0","responseType":"finish","participantID":"eegbm1cjrne4fyocv68l62qyo1oa712u","anagrams_seen":["DALRBEU","PREOK","YJAKWLA"],"anagrams_answers":["DURABLE","POKER","JAYWALK"]},{"rt":4053,"responses":"{\"Q0\":0}","trial_type":"survey-likert","trial_index":12,"time_elapsed":86098,"internal_node_id":"0.0-3.0-4.0-0.0","responseType":"finish","participantID":"eegbm1cjrne4fyocv68l62qyo1oa712u","anagrams_seen":["DALRBEU","PREOK","YJAKWLA"],"anagrams_answers":["DURABLE","POKER","JAYWALK"]},{"rt":1176,"stimulus":"\u003cblockquote\u003e\n  \u003cp\u003eNow the next anagram will be shown to you. \u003cbr\u003e\u003cbr\u003e Press 'v' to view the anagram.\u003c/p\u003e\n\u003c/blockquote\u003e","key_press":86,"trial_type":"html-keyboard-response","trial_index":13,"time_elapsed":87275,"internal_node_id":"0.0-3.1-0.1","responseType":"finish","participantID":"eegbm1cjrne4fyocv68l62qyo1oa712u","anagrams_seen":["DALRBEU","PREOK","YJAKWLA"],"anagrams_answers":["DURABLE","POKER","JAYWALK"]},{"rt":null,"stimulus":"\u003cb\u003e\u003ccenter\u003e\u003ch2\u003e\u003cp\u003ePREOK\u003c/p\u003e\u003c/h2\u003e\u003c/center\u003e\u003c/b\u003e","key_press":null,"trial_type":"html-keyboard-response","trial_index":14,"time_elapsed":89277,"internal_node_id":"0.0-3.1-1.1","responseType":"finish","participantID":"eegbm1cjrne4fyocv68l62qyo1oa712u","anagrams_seen":["DALRBEU","PREOK","YJAKWLA"],"anagrams_answers":["DURABLE","POKER","JAYWALK"]},{"rt":4613,"stimulus":"\u003cp\u003e \u003ccenter\u003e How close are you towards solving this anagram?  \u003c/center\u003e \u003c/p\u003e","key_press":55,"trial_type":"html-keyboard-response","trial_index":15,"time_elapsed":93890,"internal_node_id":"0.0-3.1-2.3-0.3","responseType":"finish","participantID":"eegbm1cjrne4fyocv68l62qyo1oa712u","anagrams_seen":["DALRBEU","PREOK","YJAKWLA"],"anagrams_answers":["DURABLE","POKER","JAYWALK"]},{"rt":2532,"responses":"{\"Q0\":\"poker\"}","conditions":"{\"Questions\":{\"Q_0\":\"\u003csmall\u003e\u003cp\u003eType your answer below:\u003c/p\u003e\u003c/small\u003e\"}}","trial_type":"survey-text-2","trial_index":16,"time_elapsed":96424,"internal_node_id":"0.0-3.1-2.3-1.3","responseType":"finish","participantID":"eegbm1cjrne4fyocv68l62qyo1oa712u","anagrams_seen":["DALRBEU","PREOK","YJAKWLA"],"anagrams_answers":["DURABLE","POKER","JAYWALK"]},{"rt":1137,"stimulus":"\u003cblockquote\u003e\n  \u003cp\u003eCorrect answer! \u003cbr\u003e\u003cbr\u003e Press 'v' to continue.\u003c/p\u003e\n\u003c/blockquote\u003e","key_press":86,"trial_type":"html-keyboard-response","trial_index":17,"time_elapsed":97562,"internal_node_id":"0.0-3.1-3.1","responseType":"finish","participantID":"eegbm1cjrne4fyocv68l62qyo1oa712u","anagrams_seen":["DALRBEU","PREOK","YJAKWLA"],"anagrams_answers":["DURABLE","POKER","JAYWALK"]},{"rt":3429,"responses":"{\"Q0\":1}","trial_type":"survey-likert","trial_index":18,"time_elapsed":100993,"internal_node_id":"0.0-3.1-4.1-0.1","responseType":"finish","participantID":"eegbm1cjrne4fyocv68l62qyo1oa712u","anagrams_seen":["DALRBEU","PREOK","YJAKWLA"],"anagrams_answers":["DURABLE","POKER","JAYWALK"]},{"rt":1068,"stimulus":"\u003cblockquote\u003e\n  \u003cp\u003eNow the next anagram will be shown to you. \u003cbr\u003e\u003cbr\u003e Press 'v' to view the anagram.\u003c/p\u003e\n\u003c/blockquote\u003e","key_press":86,"trial_type":"html-keyboard-response","trial_index":19,"time_elapsed":102062,"internal_node_id":"0.0-3.2-0.2","responseType":"finish","participantID":"eegbm1cjrne4fyocv68l62qyo1oa712u","anagrams_seen":["DALRBEU","PREOK","YJAKWLA"],"anagrams_answers":["DURABLE","POKER","JAYWALK"]},{"rt":null,"stimulus":"\u003cb\u003e\u003ccenter\u003e\u003ch2\u003e\u003cp\u003eYJAKWLA\u003c/p\u003e\u003c/h2\u003e\u003c/center\u003e\u003c/b\u003e","key_press":null,"trial_type":"html-keyboard-response","trial_index":20,"time_elapsed":104064,"internal_node_id":"0.0-3.2-1.2","responseType":"finish","participantID":"eegbm1cjrne4fyocv68l62qyo1oa712u","anagrams_seen":["DALRBEU","PREOK","YJAKWLA"],"anagrams_answers":["DURABLE","POKER","JAYWALK"]},{"rt":1181,"stimulus":"\u003cp\u003e \u003ccenter\u003e How close are you towards solving this anagram?  \u003c/center\u003e \u003c/p\u003e","key_press":48,"trial_type":"html-keyboard-response","trial_index":21,"time_elapsed":105246,"internal_node_id":"0.0-3.2-2.4-0.4","responseType":"finish","participantID":"eegbm1cjrne4fyocv68l62qyo1oa712u","anagrams_seen":["DALRBEU","PREOK","YJAKWLA"],"anagrams_answers":["DURABLE","POKER","JAYWALK"]},{"rt":5589,"responses":"{\"Q0\":\"jaywalk\"}","conditions":"{\"Questions\":{\"Q_0\":\"\u003csmall\u003e\u003cp\u003eType your answer below:\u003c/p\u003e\u003c/small\u003e\"}}","trial_type":"survey-text-2","trial_index":22,"time_elapsed":110840,"internal_node_id":"0.0-3.2-2.4-1.4","responseType":"finish","participantID":"eegbm1cjrne4fyocv68l62qyo1oa712u","anagrams_seen":["DALRBEU","PREOK","YJAKWLA"],"anagrams_answers":["DURABLE","POKER","JAYWALK"]},{"rt":872,"stimulus":"\u003cblockquote\u003e\n  \u003cp\u003eCorrect answer! \u003cbr\u003e\u003cbr\u003e Press 'v' to continue.\u003c/p\u003e\n\u003c/blockquote\u003e","key_press":86,"trial_type":"html-keyboard-response","trial_index":23,"time_elapsed":111714,"internal_node_id":"0.0-3.2-3.2","responseType":"finish","participantID":"eegbm1cjrne4fyocv68l62qyo1oa712u","anagrams_seen":["DALRBEU","PREOK","YJAKWLA"],"anagrams_answers":["DURABLE","POKER","JAYWALK"]},{"rt":2940,"responses":"{\"Q0\":9}","trial_type":"survey-likert","trial_index":24,"time_elapsed":114655,"internal_node_id":"0.0-3.2-4.2-0.2","responseType":"finish","participantID":"eegbm1cjrne4fyocv68l62qyo1oa712u","anagrams_seen":["DALRBEU","PREOK","YJAKWLA"],"anagrams_answers":["DURABLE","POKER","JAYWALK"]}],"__v":0}
{"_id":{"$oid":"5d67296a77e5be0004e134d5"},"data":{"responseType":"start","participantID":"rofmjen4y5cvs4s5x9gk7ln9xwnn29ut","anagrams_seen":["SSOIA","KHAOMCM","IORCNAG"],"anagrams_answers":["OASIS","HAMMOCK","ORGANIC"]},"__v":0}
{"_id":{"$oid":"5d67296d77e5be0004e134d6"},"data":[{"rt":26759,"responses":"{\"Q0\":\" I consent to participate\"}","trial_type":"survey-multi-choice","trial_index":0,"time_elapsed":26769,"internal_node_id":"0.0-0.0","responseType":"finish","participantID":"hjtt8oj98hyp89oj6leq58qugy58eayq","anagrams_seen":["RECKL","SROT","SONW"],"anagrams_answers":["CLERK","SORT","SNOW"]},{"trial_type":"call-function","trial_index":1,"time_elapsed":26791,"internal_node_id":"0.0-1.0","responseType":"finish","participantID":"hjtt8oj98hyp89oj6leq58qugy58eayq","anagrams_seen":["RECKL","SROT","SONW"],"anagrams_answers":["CLERK","SORT","SNOW"]},{"view_history":"[{\"page_index\":0,\"viewing_time\":11836},{\"page_index\":1,\"viewing_time\":9395},{\"page_index\":2,\"viewing_time\":8144}]","rt":29376,"trial_type":"instructions","trial_index":2,"time_elapsed":56173,"internal_node_id":"0.0-2.0","responseType":"finish","participantID":"hjtt8oj98hyp89oj6leq58qugy58eayq","anagrams_seen":["RECKL","SROT","SONW"],"anagrams_answers":["CLERK","SORT","SNOW"]},{"rt":1958,"stimulus":"\u003cblockquote\u003e\n  \u003cp\u003eNow the next anagram will be shown to you. \u003cbr\u003e\u003cbr\u003e Press 'v' to view the anagram.\u003c/p\u003e\n\u003c/blockquote\u003e","key_press":86,"trial_type":"html-keyboard-response","trial_index":3,"time_elapsed":58133,"internal_node_id":"0.0-3.0-0.0","responseType":"finish","participantID":"hjtt8oj98hyp89oj6leq58qugy58eayq","anagrams_seen":["RECKL","SROT","SONW"],"anagrams_answers":["CLERK","SORT","SNOW"]},{"rt":null,"stimulus":"\u003cb\u003e\u003ccenter\u003e\u003ch2\u003e\u003cp\u003eRECKL\u003c/p\u003e\u003c/h2\u003e\u003c/center\u003e\u003c/b\u003e","key_press":null,"trial_type":"html-keyboard-response","trial_index":4,"time_elapsed":60148,"internal_node_id":"0.0-3.0-1.0","responseType":"finish","participantID":"hjtt8oj98hyp89oj6leq58qugy58eayq","anagrams_seen":["RECKL","SROT","SONW"],"anagrams_answers":["CLERK","SORT","SNOW"]},{"rt":3369,"stimulus":"\u003cp\u003e \u003ccenter\u003e How close are you towards solving this anagram?  \u003c/center\u003e \u003c/p\u003e","key_press":50,"trial_type":"html-keyboard-response","trial_index":5,"time_elapsed":63520,"internal_node_id":"0.0-3.0-2.0-0.0","responseType":"finish","participantID":"hjtt8oj98hyp89oj6leq58qugy58eayq","anagrams_seen":["RECKL","SROT","SONW"],"anagrams_answers":["CLERK","SORT","SNOW"]},{"rt":8486,"responses":"{\"Q0\":\"CLERK\"}","conditions":"{\"Questions\":{\"Q_0\":\"\u003csmall\u003e\u003cp\u003eType your answer below:\u003c/p\u003e\u003c/small\u003e\"}}","trial_type":"survey-text-2","trial_index":6,"time_elapsed":72023,"internal_node_id":"0.0-3.0-2.0-1.0","responseType":"finish","participantID":"hjtt8oj98hyp89oj6leq58qugy58eayq","anagrams_seen":["RECKL","SROT","SONW"],"anagrams_answers":["CLERK","SORT","SNOW"]},{"rt":1323,"stimulus":"\u003cblockquote\u003e\n  \u003cp\u003eCorrect answer! \u003cbr\u003e\u003cbr\u003e Press 'v' to continue.\u003c/p\u003e\n\u003c/blockquote\u003e","key_press":86,"trial_type":"html-keyboard-response","trial_index":7,"time_elapsed":73352,"internal_node_id":"0.0-3.0-3.0","responseType":"finish","participantID":"hjtt8oj98hyp89oj6leq58qugy58eayq","anagrams_seen":["RECKL","SROT","SONW"],"anagrams_answers":["CLERK","SORT","SNOW"]},{"rt":5880,"responses":"{\"Q0\":8}","trial_type":"survey-likert","trial_index":8,"time_elapsed":79234,"internal_node_id":"0.0-3.0-4.0-0.0","responseType":"finish","participantID":"hjtt8oj98hyp89oj6leq58qugy58eayq","anagrams_seen":["RECKL","SROT","SONW"],"anagrams_answers":["CLERK","SORT","SNOW"]},{"rt":1332,"stimulus":"\u003cblockquote\u003e\n  \u003cp\u003eNow the next anagram will be shown to you. \u003cbr\u003e\u003cbr\u003e Press 'v' to view the anagram.\u003c/p\u003e\n\u003c/blockquote\u003e","key_press":86,"trial_type":"html-keyboard-response","trial_index":9,"time_elapsed":80570,"internal_node_id":"0.0-3.1-0.1","responseType":"finish","participantID":"hjtt8oj98hyp89oj6leq58qugy58eayq","anagrams_seen":["RECKL","SROT","SONW"],"anagrams_answers":["CLERK","SORT","SNOW"]},{"rt":null,"stimulus":"\u003cb\u003e\u003ccenter\u003e\u003ch2\u003e\u003cp\u003eSROT\u003c/p\u003e\u003c/h2\u003e\u003c/center\u003e\u003c/b\u003e","key_press":null,"trial_type":"html-keyboard-response","trial_index":10,"time_elapsed":82574,"internal_node_id":"0.0-3.1-1.1","responseType":"finish","participantID":"hjtt8oj98hyp89oj6leq58qugy58eayq","anagrams_seen":["RECKL","SROT","SONW"],"anagrams_answers":["CLERK","SORT","SNOW"]},{"rt":1755,"stimulus":"\u003cp\u003e \u003ccenter\u003e How close are you towards solving this anagram?  \u003c/center\u003e \u003c/p\u003e","key_press":57,"trial_type":"html-keyboard-response","trial_index":11,"time_elapsed":84331,"internal_node_id":"0.0-3.1-2.1-0.1","responseType":"finish","participantID":"hjtt8oj98hyp89oj6leq58qugy58eayq","anagrams_seen":["RECKL","SROT","SONW"],"anagrams_answers":["CLERK","SORT","SNOW"]},{"rt":2333,"responses":"{\"Q0\":\"SORT\"}","conditions":"{\"Questions\":{\"Q_0\":\"\u003csmall\u003e\u003cp\u003eType your answer below:\u003c/p\u003e\u003c/small\u003e\"}}","trial_type":"survey-text-2","trial_index":12,"time_elapsed":86670,"internal_node_id":"0.0-3.1-2.1-1.1","responseType":"finish","participantID":"hjtt8oj98hyp89oj6leq58qugy58eayq","anagrams_seen":["RECKL","SROT","SONW"],"anagrams_answers":["CLERK","SORT","SNOW"]},{"rt":6817,"stimulus":"\u003cblockquote\u003e\n  \u003cp\u003eCorrect answer! \u003cbr\u003e\u003cbr\u003e Press 'v' to continue.\u003c/p\u003e\n\u003c/blockquote\u003e","key_press":86,"trial_type":"html-keyboard-response","trial_index":13,"time_elapsed":93490,"internal_node_id":"0.0-3.1-3.1","responseType":"finish","participantID":"hjtt8oj98hyp89oj6leq58qugy58eayq","anagrams_seen":["RECKL","SROT","SONW"],"anagrams_answers":["CLERK","SORT","SNOW"]},{"rt":2722,"responses":"{\"Q0\":5}","trial_type":"survey-likert","trial_index":14,"time_elapsed":96214,"internal_node_id":"0.0-3.1-4.1-0.1","responseType":"finish","participantID":"hjtt8oj98hyp89oj6leq58qugy58eayq","anagrams_seen":["RECKL","SROT","SONW"],"anagrams_answers":["CLERK","SORT","SNOW"]},{"rt":1870,"stimulus":"\u003cblockquote\u003e\n  \u003cp\u003eNow the next anagram will be shown to you. \u003cbr\u003e\u003cbr\u003e Press 'v' to view the anagram.\u003c/p\u003e\n\u003c/blockquote\u003e","key_press":86,"trial_type":"html-keyboard-response","trial_index":15,"time_elapsed":98085,"internal_node_id":"0.0-3.2-0.2","responseType":"finish","participantID":"hjtt8oj98hyp89oj6leq58qugy58eayq","anagrams_seen":["RECKL","SROT","SONW"],"anagrams_answers":["CLERK","SORT","SNOW"]},{"rt":null,"stimulus":"\u003cb\u003e\u003ccenter\u003e\u003ch2\u003e\u003cp\u003eSONW\u003c/p\u003e\u003c/h2\u003e\u003c/center\u003e\u003c/b\u003e","key_press":null,"trial_type":"html-keyboard-response","trial_index":16,"time_elapsed":100089,"internal_node_id":"0.0-3.2-1.2","responseType":"finish","participantID":"hjtt8oj98hyp89oj6leq58qugy58eayq","anagrams_seen":["RECKL","SROT","SONW"],"anagrams_answers":["CLERK","SORT","SNOW"]},{"rt":1725,"stimulus":"\u003cp\u003e \u003ccenter\u003e How close are you towards solving this anagram?  \u003c/center\u003e \u003c/p\u003e","key_press":57,"trial_type":"html-keyboard-response","trial_index":17,"time_elapsed":101815,"internal_node_id":"0.0-3.2-2.2-0.2","responseType":"finish","participantID":"hjtt8oj98hyp89oj6leq58qugy58eayq","anagrams_seen":["RECKL","SROT","SONW"],"anagrams_answers":["CLERK","SORT","SNOW"]},{"rt":2897,"responses":"{\"Q0\":\"SNOW\"}","conditions":"{\"Questions\":{\"Q_0\":\"\u003csmall\u003e\u003cp\u003eType your answer below:\u003c/p\u003e\u003c/small\u003e\"}}","trial_type":"survey-text-2","trial_index":18,"time_elapsed":104720,"internal_node_id":"0.0-3.2-2.2-1.2","responseType":"finish","participantID":"hjtt8oj98hyp89oj6leq58qugy58eayq","anagrams_seen":["RECKL","SROT","SONW"],"anagrams_answers":["CLERK","SORT","SNOW"]},{"rt":1102,"stimulus":"\u003cblockquote\u003e\n  \u003cp\u003eCorrect answer! \u003cbr\u003e\u003cbr\u003e Press 'v' to continue.\u003c/p\u003e\n\u003c/blockquote\u003e","key_press":86,"trial_type":"html-keyboard-response","trial_index":19,"time_elapsed":105825,"internal_node_id":"0.0-3.2-3.2","responseType":"finish","participantID":"hjtt8oj98hyp89oj6leq58qugy58eayq","anagrams_seen":["RECKL","SROT","SONW"],"anagrams_answers":["CLERK","SORT","SNOW"]},{"rt":1552,"responses":"{\"Q0\":6}","trial_type":"survey-likert","trial_index":20,"time_elapsed":107382,"internal_node_id":"0.0-3.2-4.2-0.2","responseType":"finish","participantID":"hjtt8oj98hyp89oj6leq58qugy58eayq","anagrams_seen":["RECKL","SROT","SONW"],"anagrams_answers":["CLERK","SORT","SNOW"]}],"__v":0}
{"_id":{"$oid":"5d67297177e5be0004e134d7"},"data":{"responseType":"start","participantID":"asww4kqt93wz6809ag5x72purd270mcv","anagrams_seen":["VLVOO","PITN","PREOK"],"anagrams_answers":["VOLVO","PINT","POKER"]},"__v":0}
{"_id":{"$oid":"5d67297277e5be0004e134d8"},"data":{"responseType":"start","participantID":"rm8q5t5qsa8pu3ckb73qj5oa14kb3ujz","anagrams_seen":["PONHE","SONW","SSOIA"],"anagrams_answers":["PHONE","SNOW","OASIS"]},"__v":0}
{"_id":{"$oid":"5d67297377e5be0004e134d9"},"data":[{"rt":13195,"responses":"{\"Q0\":\" I consent to participate\"}","trial_type":"survey-multi-choice","trial_index":0,"time_elapsed":13198,"internal_node_id":"0.0-0.0","responseType":"finish","participantID":"z3y3j800a2sap4ku5afag8vle392vhl1","anagrams_seen":["PREOK","BLEL","RECKL"],"anagrams_answers":["POKER","BELL","CLERK"]},{"trial_type":"call-function","trial_index":1,"time_elapsed":13201,"internal_node_id":"0.0-1.0","responseType":"finish","participantID":"z3y3j800a2sap4ku5afag8vle392vhl1","anagrams_seen":["PREOK","BLEL","RECKL"],"anagrams_answers":["POKER","BELL","CLERK"]},{"view_history":"[{\"page_index\":0,\"viewing_time\":15931},{\"page_index\":1,\"viewing_time\":12870},{\"page_index\":2,\"viewing_time\":17688}]","rt":46489,"trial_type":"instructions","trial_index":2,"time_elapsed":59690,"internal_node_id":"0.0-2.0","responseType":"finish","participantID":"z3y3j800a2sap4ku5afag8vle392vhl1","anagrams_seen":["PREOK","BLEL","RECKL"],"anagrams_answers":["POKER","BELL","CLERK"]},{"rt":3728,"stimulus":"\u003cblockquote\u003e\n  \u003cp\u003eNow the next anagram will be shown to you. \u003cbr\u003e\u003cbr\u003e Press 'v' to view the anagram.\u003c/p\u003e\n\u003c/blockquote\u003e","key_press":86,"trial_type":"html-keyboard-response","trial_index":3,"time_elapsed":63420,"internal_node_id":"0.0-3.0-0.0","responseType":"finish","participantID":"z3y3j800a2sap4ku5afag8vle392vhl1","anagrams_seen":["PREOK","BLEL","RECKL"],"anagrams_answers":["POKER","BELL","CLERK"]},{"rt":null,"stimulus":"\u003cb\u003e\u003ccenter\u003e\u003ch2\u003e\u003cp\u003ePREOK\u003c/p\u003e\u003c/h2\u003e\u003c/center\u003e\u003c/b\u003e","key_press":null,"trial_type":"html-keyboard-response","trial_index":4,"time_elapsed":65423,"internal_node_id":"0.0-3.0-1.0","responseType":"finish","participantID":"z3y3j800a2sap4ku5afag8vle392vhl1","anagrams_seen":["PREOK","BLEL","RECKL"],"anagrams_answers":["POKER","BELL","CLERK"]},{"rt":3193,"stimulus":"\u003cp\u003e \u003ccenter\u003e How close are you towards solving this anagram?  \u003c/center\u003e \u003c/p\u003e","key_press":49,"trial_type":"html-keyboard-response","trial_index":5,"time_elapsed":68618,"internal_node_id":"0.0-3.0-2.0-0.0","responseType":"finish","participantID":"z3y3j800a2sap4ku5afag8vle392vhl1","anagrams_seen":["PREOK","BLEL","RECKL"],"anagrams_answers":["POKER","BELL","CLERK"]},{"rt":18353,"responses":"{\"Q0\":\"POKER\"}","conditions":"{\"Questions\":{\"Q_0\":\"\u003csmall\u003e\u003cp\u003eType your answer below:\u003c/p\u003e\u003c/small\u003e\"}}","trial_type":"survey-text-2","trial_index":6,"time_elapsed":86974,"internal_node_id":"0.0-3.0-2.0-1.0","responseType":"finish","participantID":"z3y3j800a2sap4ku5afag8vle392vhl1","anagrams_seen":["PREOK","BLEL","RECKL"],"anagrams_answers":["POKER","BELL","CLERK"]},{"rt":2896,"stimulus":"\u003cblockquote\u003e\n  \u003cp\u003eCorrect answer! \u003cbr\u003e\u003cbr\u003e Press 'v' to continue.\u003c/p\u003e\n\u003c/blockquote\u003e","key_press":86,"trial_type":"html-keyboard-response","trial_index":7,"time_elapsed":89873,"internal_node_id":"0.0-3.0-3.0","responseType":"finish","participantID":"z3y3j800a2sap4ku5afag8vle392vhl1","anagrams_seen":["PREOK","BLEL","RECKL"],"anagrams_answers":["POKER","BELL","CLERK"]},{"rt":23733,"responses":"{\"Q0\":6}","trial_type":"survey-likert","trial_index":8,"time_elapsed":113607,"internal_node_id":"0.0-3.0-4.0-0.0","responseType":"finish","participantID":"z3y3j800a2sap4ku5afag8vle392vhl1","anagrams_seen":["PREOK","BLEL","RECKL"],"anagrams_answers":["POKER","BELL","CLERK"]},{"rt":1892,"stimulus":"\u003cblockquote\u003e\n  \u003cp\u003eNow the next anagram will be shown to you. \u003cbr\u003e\u003cbr\u003e Press 'v' to view the anagram.\u003c/p\u003e\n\u003c/blockquote\u003e","key_press":86,"trial_type":"html-keyboard-response","trial_index":9,"time_elapsed":115499,"internal_node_id":"0.0-3.1-0.1","responseType":"finish","participantID":"z3y3j800a2sap4ku5afag8vle392vhl1","anagrams_seen":["PREOK","BLEL","RECKL"],"anagrams_answers":["POKER","BELL","CLERK"]},{"rt":null,"stimulus":"\u003cb\u003e\u003ccenter\u003e\u003ch2\u003e\u003cp\u003eBLEL\u003c/p\u003e\u003c/h2\u003e\u003c/center\u003e\u003c/b\u003e","key_press":null,"trial_type":"html-keyboard-response","trial_index":10,"time_elapsed":117501,"internal_node_id":"0.0-3.1-1.1","responseType":"finish","participantID":"z3y3j800a2sap4ku5afag8vle392vhl1","anagrams_seen":["PREOK","BLEL","RECKL"],"anagrams_answers":["POKER","BELL","CLERK"]},{"rt":2450,"stimulus":"\u003cp\u003e \u003ccenter\u003e How close are you towards solving this anagram?  \u003c/center\u003e \u003c/p\u003e","key_press":57,"trial_type":"html-keyboard-response","trial_index":11,"time_elapsed":119951,"internal_node_id":"0.0-3.1-2.1-0.1","responseType":"finish","participantID":"z3y3j800a2sap4ku5afag8vle392vhl1","anagrams_seen":["PREOK","BLEL","RECKL"],"anagrams_answers":["POKER","BELL","CLERK"]},{"rt":4002,"responses":"{\"Q0\":\"BELL\"}","conditions":"{\"Questions\":{\"Q_0\":\"\u003csmall\u003e\u003cp\u003eType your answer below:\u003c/p\u003e\u003c/small\u003e\"}}","trial_type":"survey-text-2","trial_index":12,"time_elapsed":123955,"internal_node_id":"0.0-3.1-2.1-1.1","responseType":"finish","participantID":"z3y3j800a2sap4ku5afag8vle392vhl1","anagrams_seen":["PREOK","BLEL","RECKL"],"anagrams_answers":["POKER","BELL","CLERK"]},{"rt":1061,"stimulus":"\u003cblockquote\u003e\n  \u003cp\u003eCorrect answer! \u003cbr\u003e\u003cbr\u003e Press 'v' to continue.\u003c/p\u003e\n\u003c/blockquote\u003e","key_press":86,"trial_type":"html-keyboard-response","trial_index":13,"time_elapsed":125016,"internal_node_id":"0.0-3.1-3.1","responseType":"finish","participantID":"z3y3j800a2sap4ku5afag8vle392vhl1","anagrams_seen":["PREOK","BLEL","RECKL"],"anagrams_answers":["POKER","BELL","CLERK"]},{"rt":7215,"responses":"{\"Q0\":2}","trial_type":"survey-likert","trial_index":14,"time_elapsed":132232,"internal_node_id":"0.0-3.1-4.1-0.1","responseType":"finish","participantID":"z3y3j800a2sap4ku5afag8vle392vhl1","anagrams_seen":["PREOK","BLEL","RECKL"],"anagrams_answers":["POKER","BELL","CLERK"]},{"rt":826,"stimulus":"\u003cblockquote\u003e\n  \u003cp\u003eNow the next anagram will be shown to you. \u003cbr\u003e\u003cbr\u003e Press 'v' to view the anagram.\u003c/p\u003e\n\u003c/blockquote\u003e","key_press":86,"trial_type":"html-keyboard-response","trial_index":15,"time_elapsed":133059,"internal_node_id":"0.0-3.2-0.2","responseType":"finish","participantID":"z3y3j800a2sap4ku5afag8vle392vhl1","anagrams_seen":["PREOK","BLEL","RECKL"],"anagrams_answers":["POKER","BELL","CLERK"]},{"rt":null,"stimulus":"\u003cb\u003e\u003ccenter\u003e\u003ch2\u003e\u003cp\u003eRECKL\u003c/p\u003e\u003c/h2\u003e\u003c/center\u003e\u003c/b\u003e","key_press":null,"trial_type":"html-keyboard-response","trial_index":16,"time_elapsed":135060,"internal_node_id":"0.0-3.2-1.2","responseType":"finish","participantID":"z3y3j800a2sap4ku5afag8vle392vhl1","anagrams_seen":["PREOK","BLEL","RECKL"],"anagrams_answers":["POKER","BELL","CLERK"]},{"rt":2539,"stimulus":"\u003cp\u003e \u003ccenter\u003e How close are you towards solving this anagram?  \u003c/center\u003e \u003c/p\u003e","key_press":51,"trial_type":"html-keyboard-response","trial_index":17,"time_elapsed":137599,"internal_node_id":"0.0-3.2-2.2-0.2","responseType":"finish","participantID":"z3y3j800a2sap4ku5afag8vle392vhl1","anagrams_seen":["PREOK","BLEL","RECKL"],"anagrams_answers":["POKER","BELL","CLERK"]},{"rt":8832,"responses":"{\"Q0\":\"CLERK\"}","conditions":"{\"Questions\":{\"Q_0\":\"\u003csmall\u003e\u003cp\u003eType your answer below:\u003c/p\u003e\u003c/small\u003e\"}}","trial_type":"survey-text-2","trial_index":18,"time_elapsed":146434,"internal_node_id":"0.0-3.2-2.2-1.2","responseType":"finish","participantID":"z3y3j800a2sap4ku5afag8vle392vhl1","anagrams_seen":["PREOK","BLEL","RECKL"],"anagrams_answers":["POKER","BELL","CLERK"]},{"rt":1143,"stimulus":"\u003cblockquote\u003e\n  \u003cp\u003eCorrect answer! \u003cbr\u003e\u003cbr\u003e Press 'v' to continue.\u003c/p\u003e\n\u003c/blockquote\u003e","key_press":86,"trial_type":"html-keyboard-response","trial_index":19,"time_elapsed":147577,"internal_node_id":"0.0-3.2-3.2","responseType":"finish","participantID":"z3y3j800a2sap4ku5afag8vle392vhl1","anagrams_seen":["PREOK","BLEL","RECKL"],"anagrams_answers":["POKER","BELL","CLERK"]},{"rt":4218,"responses":"{\"Q0\":4}","trial_type":"survey-likert","trial_index":20,"time_elapsed":151796,"internal_node_id":"0.0-3.2-4.2-0.2","responseType":"finish","participantID":"z3y3j800a2sap4ku5afag8vle392vhl1","anagrams_seen":["PREOK","BLEL","RECKL"],"anagrams_answers":["POKER","BELL","CLERK"]}],"__v":0}
{"_id":{"$oid":"5d67298677e5be0004e134da"},"data":{"responseType":"start","participantID":"udb6a5wzrarg06q8x3pcgjlwsy36as5c","anagrams_seen":["KHAOMCM","VLVOO","PITN"],"anagrams_answers":["HAMMOCK","VOLVO","PINT"]},"__v":0}
{"_id":{"$oid":"5d6729a977e5be0004e134db"},"data":{"responseType":"start","participantID":"8hbrobut32vsfjx5h25476cam70893os","anagrams_seen":["SROT","SSOIA","PITN"],"anagrams_answers":["SORT","OASIS","PINT"]},"__v":0}
{"_id":{"$oid":"5d6729ac77e5be0004e134dc"},"data":{"responseType":"start","participantID":"tvhyexp00eyj0j9jzc2583uxn5ey07jg","anagrams_seen":["HNATUYG","SROT","PREOK"],"anagrams_answers":["NAUGHTY","SORT","POKER"]},"__v":0}
{"_id":{"$oid":"5d6729b477e5be0004e134dd"},"data":{"responseType":"start","participantID":"rvzfdjbrh01ytrfj8145211a83frs3xp","anagrams_seen":["SROT","SONW","RECKL"],"anagrams_answers":["SORT","SNOW","CLERK"]},"__v":0}
{"_id":{"$oid":"5d6729b777e5be0004e134de"},"data":[{"rt":4517,"responses":"{\"Q0\":\" I consent to participate\"}","trial_type":"survey-multi-choice","trial_index":0,"time_elapsed":4519,"internal_node_id":"0.0-0.0","responseType":"finish","participantID":"4qklxuvz9792qn7yx5p8s4kd58d0zu1f","anagrams_seen":["SROT","PREOK","IORCNAG"],"anagrams_answers":["SORT","POKER","ORGANIC"]},{"trial_type":"call-function","trial_index":1,"time_elapsed":4523,"internal_node_id":"0.0-1.0","responseType":"finish","participantID":"4qklxuvz9792qn7yx5p8s4kd58d0zu1f","anagrams_seen":["SROT","PREOK","IORCNAG"],"anagrams_answers":["SORT","POKER","ORGANIC"]},{"view_history":"[{\"page_index\":0,\"viewing_time\":29661},{\"page_index\":1,\"viewing_time\":23965},{\"page_index\":2,\"viewing_time\":11652}]","rt":65279,"trial_type":"instructions","trial_index":2,"time_elapsed":69802,"internal_node_id":"0.0-2.0","responseType":"finish","participantID":"4qklxuvz9792qn7yx5p8s4kd58d0zu1f","anagrams_seen":["SROT","PREOK","IORCNAG"],"anagrams_answers":["SORT","POKER","ORGANIC"]},{"rt":3295,"stimulus":"\u003cblockquote\u003e\n  \u003cp\u003eNow the next anagram will be shown to you. \u003cbr\u003e\u003cbr\u003e Press 'v' to view the anagram.\u003c/p\u003e\n\u003c/blockquote\u003e","key_press":86,"trial_type":"html-keyboard-response","trial_index":3,"time_elapsed":73097,"internal_node_id":"0.0-3.0-0.0","responseType":"finish","participantID":"4qklxuvz9792qn7yx5p8s4kd58d0zu1f","anagrams_seen":["SROT","PREOK","IORCNAG"],"anagrams_answers":["SORT","POKER","ORGANIC"]},{"rt":null,"stimulus":"\u003cb\u003e\u003ccenter\u003e\u003ch2\u003e\u003cp\u003eSROT\u003c/p\u003e\u003c/h2\u003e\u003c/center\u003e\u003c/b\u003e","key_press":null,"trial_type":"html-keyboard-response","trial_index":4,"time_elapsed":75102,"internal_node_id":"0.0-3.0-1.0","responseType":"finish","participantID":"4qklxuvz9792qn7yx5p8s4kd58d0zu1f","anagrams_seen":["SROT","PREOK","IORCNAG"],"anagrams_answers":["SORT","POKER","ORGANIC"]},{"rt":5475,"stimulus":"\u003cp\u003e \u003ccenter\u003e How close are you towards solving this anagram?  \u003c/center\u003e \u003c/p\u003e","key_press":48,"trial_type":"html-keyboard-response","trial_index":5,"time_elapsed":80578,"internal_node_id":"0.0-3.0-2.0-0.0","responseType":"finish","participantID":"4qklxuvz9792qn7yx5p8s4kd58d0zu1f","anagrams_seen":["SROT","PREOK","IORCNAG"],"anagrams_answers":["SORT","POKER","ORGANIC"]},{"rt":4836,"responses":"{\"Q0\":\"sort\"}","conditions":"{\"Questions\":{\"Q_0\":\"\u003csmall\u003e\u003cp\u003eType your answer below:\u003c/p\u003e\u003c/small\u003e\"}}","trial_type":"survey-text-2","trial_index":6,"time_elapsed":85422,"internal_node_id":"0.0-3.0-2.0-1.0","responseType":"finish","participantID":"4qklxuvz9792qn7yx5p8s4kd58d0zu1f","anagrams_seen":["SROT","PREOK","IORCNAG"],"anagrams_answers":["SORT","POKER","ORGANIC"]},{"rt":2593,"stimulus":"\u003cblockquote\u003e\n  \u003cp\u003eCorrect answer! \u003cbr\u003e\u003cbr\u003e Press 'v' to continue.\u003c/p\u003e\n\u003c/blockquote\u003e","key_press":86,"trial_type":"html-keyboard-response","trial_index":7,"time_elapsed":88017,"internal_node_id":"0.0-3.0-3.0","responseType":"finish","participantID":"4qklxuvz9792qn7yx5p8s4kd58d0zu1f","anagrams_seen":["SROT","PREOK","IORCNAG"],"anagrams_answers":["SORT","POKER","ORGANIC"]},{"rt":9541,"responses":"{\"Q0\":0}","trial_type":"survey-likert","trial_index":8,"time_elapsed":97560,"internal_node_id":"0.0-3.0-4.0-0.0","responseType":"finish","participantID":"4qklxuvz9792qn7yx5p8s4kd58d0zu1f","anagrams_seen":["SROT","PREOK","IORCNAG"],"anagrams_answers":["SORT","POKER","ORGANIC"]},{"rt":1728,"stimulus":"\u003cblockquote\u003e\n  \u003cp\u003eNow the next anagram will be shown to you. \u003cbr\u003e\u003cbr\u003e Press 'v' to view the anagram.\u003c/p\u003e\n\u003c/blockquote\u003e","key_press":86,"trial_type":"html-keyboard-response","trial_index":9,"time_elapsed":99289,"internal_node_id":"0.0-3.1-0.1","responseType":"finish","participantID":"4qklxuvz9792qn7yx5p8s4kd58d0zu1f","anagrams_seen":["SROT","PREOK","IORCNAG"],"anagrams_answers":["SORT","POKER","ORGANIC"]},{"rt":null,"stimulus":"\u003cb\u003e\u003ccenter\u003e\u003ch2\u003e\u003cp\u003ePREOK\u003c/p\u003e\u003c/h2\u003e\u003c/center\u003e\u003c/b\u003e","key_press":null,"trial_type":"html-keyboard-response","trial_index":10,"time_elapsed":101290,"internal_node_id":"0.0-3.1-1.1","responseType":"finish","participantID":"4qklxuvz9792qn7yx5p8s4kd58d0zu1f","anagrams_seen":["SROT","PREOK","IORCNAG"],"anagrams_answers":["SORT","POKER","ORGANIC"]},{"rt":2743,"stimulus":"\u003cp\u003e \u003ccenter\u003e How close are you towards solving this anagram?  \u003c/center\u003e \u003c/p\u003e","key_press":50,"trial_type":"html-keyboard-response","trial_index":11,"time_elapsed":104034,"internal_node_id":"0.0-3.1-2.1-0.1","responseType":"finish","participantID":"4qklxuvz9792qn7yx5p8s4kd58d0zu1f","anagrams_seen":["SROT","PREOK","IORCNAG"],"anagrams_answers":["SORT","POKER","ORGANIC"]},{"rt":20001,"responses":"{\"Q0\":\"poker\"}","trial_type":"survey-text-2","trial_index":12,"time_elapsed":124041,"internal_node_id":"0.0-3.1-2.1-1.1","responseType":"finish","participantID":"4qklxuvz9792qn7yx5p8s4kd58d0zu1f","anagrams_seen":["SROT","PREOK","IORCNAG"],"anagrams_answers":["SORT","POKER","ORGANIC"]},{"rt":3111,"stimulus":"\u003cblockquote\u003e\n  \u003cp\u003eCorrect answer! \u003cbr\u003e\u003cbr\u003e Press 'v' to continue.\u003c/p\u003e\n\u003c/blockquote\u003e","key_press":86,"trial_type":"html-keyboard-response","trial_index":13,"time_elapsed":127153,"internal_node_id":"0.0-3.1-3.1","responseType":"finish","participantID":"4qklxuvz9792qn7yx5p8s4kd58d0zu1f","anagrams_seen":["SROT","PREOK","IORCNAG"],"anagrams_answers":["SORT","POKER","ORGANIC"]},{"rt":2801,"responses":"{\"Q0\":1}","trial_type":"survey-likert","trial_index":14,"time_elapsed":129955,"internal_node_id":"0.0-3.1-4.1-0.1","responseType":"finish","participantID":"4qklxuvz9792qn7yx5p8s4kd58d0zu1f","anagrams_seen":["SROT","PREOK","IORCNAG"],"anagrams_answers":["SORT","POKER","ORGANIC"]},{"rt":1837,"stimulus":"\u003cblockquote\u003e\n  \u003cp\u003eNow the next anagram will be shown to you. \u003cbr\u003e\u003cbr\u003e Press 'v' to view the anagram.\u003c/p\u003e\n\u003c/blockquote\u003e","key_press":86,"trial_type":"html-keyboard-response","trial_index":15,"time_elapsed":131793,"internal_node_id":"0.0-3.2-0.2","responseType":"finish","participantID":"4qklxuvz9792qn7yx5p8s4kd58d0zu1f","anagrams_seen":["SROT","PREOK","IORCNAG"],"anagrams_answers":["SORT","POKER","ORGANIC"]},{"rt":null,"stimulus":"\u003cb\u003e\u003ccenter\u003e\u003ch2\u003e\u003cp\u003eIORCNAG\u003c/p\u003e\u003c/h2\u003e\u003c/center\u003e\u003c/b\u003e","key_press":null,"trial_type":"html-keyboard-response","trial_index":16,"time_elapsed":133794,"internal_node_id":"0.0-3.2-1.2","responseType":"finish","participantID":"4qklxuvz9792qn7yx5p8s4kd58d0zu1f","anagrams_seen":["SROT","PREOK","IORCNAG"],"anagrams_answers":["SORT","POKER","ORGANIC"]},{"rt":2621,"stimulus":"\u003cp\u003e \u003ccenter\u003e How close are you towards solving this anagram?  \u003c/center\u003e \u003c/p\u003e","key_press":53,"trial_type":"html-keyboard-response","trial_index":17,"time_elapsed":136417,"internal_node_id":"0.0-3.2-2.2-0.2","responseType":"finish","participantID":"4qklxuvz9792qn7yx5p8s4kd58d0zu1f","anagrams_seen":["SROT","PREOK","IORCNAG"],"anagrams_answers":["SORT","POKER","ORGANIC"]},{"rt":15054,"responses":"{\"Q0\":\"organice\"}","conditions":"{\"Questions\":{\"Q_0\":\"\u003csmall\u003e\u003cp\u003eType your answer below:\u003c/p\u003e\u003c/small\u003e\"}}","trial_type":"survey-text-2","trial_index":18,"time_elapsed":151473,"internal_node_id":"0.0-3.2-2.2-1.2","responseType":"finish","participantID":"4qklxuvz9792qn7yx5p8s4kd58d0zu1f","anagrams_seen":["SROT","PREOK","IORCNAG"],"anagrams_answers":["SORT","POKER","ORGANIC"]},{"rt":1695,"stimulus":"\u003cblockquote\u003e\n  \u003cp\u003eCorrect answer! \u003cbr\u003e\u003cbr\u003e Press 'v' to continue.\u003c/p\u003e\n\u003c/blockquote\u003e","key_press":86,"trial_type":"html-keyboard-response","trial_index":19,"time_elapsed":153169,"internal_node_id":"0.0-3.2-3.2","responseType":"finish","participantID":"4qklxuvz9792qn7yx5p8s4kd58d0zu1f","anagrams_seen":["SROT","PREOK","IORCNAG"],"anagrams_answers":["SORT","POKER","ORGANIC"]},{"rt":2835,"responses":"{\"Q0\":0}","trial_type":"survey-likert","trial_index":20,"time_elapsed":156005,"internal_node_id":"0.0-3.2-4.2-0.2","responseType":"finish","participantID":"4qklxuvz9792qn7yx5p8s4kd58d0zu1f","anagrams_seen":["SROT","PREOK","IORCNAG"],"anagrams_answers":["SORT","POKER","ORGANIC"]}],"__v":0}
{"_id":{"$oid":"5d6729f277e5be0004e134df"},"data":[{"rt":55817,"responses":"{\"Q0\":\" I consent to participate\"}","trial_type":"survey-multi-choice","trial_index":0,"time_elapsed":55823,"internal_node_id":"0.0-0.0","responseType":"finish","participantID":"udb6a5wzrarg06q8x3pcgjlwsy36as5c","anagrams_seen":["KHAOMCM","VLVOO","PITN"],"anagrams_answers":["HAMMOCK","VOLVO","PINT"]},{"trial_type":"call-function","trial_index":1,"time_elapsed":55830,"internal_node_id":"0.0-1.0","responseType":"finish","participantID":"udb6a5wzrarg06q8x3pcgjlwsy36as5c","anagrams_seen":["KHAOMCM","VLVOO","PITN"],"anagrams_answers":["HAMMOCK","VOLVO","PINT"]},{"view_history":"[{\"page_index\":0,\"viewing_time\":7203},{\"page_index\":1,\"viewing_time\":13230},{\"page_index\":2,\"viewing_time\":5064}]","rt":25499,"trial_type":"instructions","trial_index":2,"time_elapsed":81329,"internal_node_id":"0.0-2.0","responseType":"finish","participantID":"udb6a5wzrarg06q8x3pcgjlwsy36as5c","anagrams_seen":["KHAOMCM","VLVOO","PITN"],"anagrams_answers":["HAMMOCK","VOLVO","PINT"]},{"rt":2132,"stimulus":"\u003cblockquote\u003e\n  \u003cp\u003eNow the next anagram will be shown to you. \u003cbr\u003e\u003cbr\u003e Press 'v' to view the anagram.\u003c/p\u003e\n\u003c/blockquote\u003e","key_press":86,"trial_type":"html-keyboard-response","trial_index":3,"time_elapsed":83463,"internal_node_id":"0.0-3.0-0.0","responseType":"finish","participantID":"udb6a5wzrarg06q8x3pcgjlwsy36as5c","anagrams_seen":["KHAOMCM","VLVOO","PITN"],"anagrams_answers":["HAMMOCK","VOLVO","PINT"]},{"rt":null,"stimulus":"\u003cb\u003e\u003ccenter\u003e\u003ch2\u003e\u003cp\u003eKHAOMCM\u003c/p\u003e\u003c/h2\u003e\u003c/center\u003e\u003c/b\u003e","key_press":null,"trial_type":"html-keyboard-response","trial_index":4,"time_elapsed":85473,"internal_node_id":"0.0-3.0-1.0","responseType":"finish","participantID":"udb6a5wzrarg06q8x3pcgjlwsy36as5c","anagrams_seen":["KHAOMCM","VLVOO","PITN"],"anagrams_answers":["HAMMOCK","VOLVO","PINT"]},{"rt":3833,"stimulus":"\u003cp\u003e \u003ccenter\u003e How close are you towards solving this anagram?  \u003c/center\u003e \u003c/p\u003e","key_press":48,"trial_type":"html-keyboard-response","trial_index":5,"time_elapsed":89308,"internal_node_id":"0.0-3.0-2.0-0.0","responseType":"finish","participantID":"udb6a5wzrarg06q8x3pcgjlwsy36as5c","anagrams_seen":["KHAOMCM","VLVOO","PITN"],"anagrams_answers":["HAMMOCK","VOLVO","PINT"]},{"rt":12289,"responses":"{\"Q0\":\"NEXT\"}","conditions":"{\"Questions\":{\"Q_0\":\"\u003csmall\u003e\u003cp\u003eType your answer below:\u003c/p\u003e\u003c/small\u003e\"}}","trial_type":"survey-text-2","trial_index":6,"time_elapsed":101608,"internal_node_id":"0.0-3.0-2.0-1.0","responseType":"finish","participantID":"udb6a5wzrarg06q8x3pcgjlwsy36as5c","anagrams_seen":["KHAOMCM","VLVOO","PITN"],"anagrams_answers":["HAMMOCK","VOLVO","PINT"]},{"rt":1427,"stimulus":"\u003cblockquote\u003e\n  \u003cp\u003eYou chose to move to the next anagram. \u003cbr\u003e\u003cbr\u003e Press 'v' to continue.\u003c/p\u003e\n\u003c/blockquote\u003e","key_press":86,"trial_type":"html-keyboard-response","trial_index":7,"time_elapsed":103040,"internal_node_id":"0.0-3.0-3.0","responseType":"finish","participantID":"udb6a5wzrarg06q8x3pcgjlwsy36as5c","anagrams_seen":["KHAOMCM","VLVOO","PITN"],"anagrams_answers":["HAMMOCK","VOLVO","PINT"]},{"rt":7292,"responses":"{\"Q0\":0}","trial_type":"survey-likert","trial_index":8,"time_elapsed":110335,"internal_node_id":"0.0-3.0-4.0-0.0","responseType":"finish","participantID":"udb6a5wzrarg06q8x3pcgjlwsy36as5c","anagrams_seen":["KHAOMCM","VLVOO","PITN"],"anagrams_answers":["HAMMOCK","VOLVO","PINT"]},{"rt":1573,"stimulus":"\u003cblockquote\u003e\n  \u003cp\u003eNow the next anagram will be shown to you. \u003cbr\u003e\u003cbr\u003e Press 'v' to view the anagram.\u003c/p\u003e\n\u003c/blockquote\u003e","key_press":86,"trial_type":"html-keyboard-response","trial_index":9,"time_elapsed":111911,"internal_node_id":"0.0-3.1-0.1","responseType":"finish","participantID":"udb6a5wzrarg06q8x3pcgjlwsy36as5c","anagrams_seen":["KHAOMCM","VLVOO","PITN"],"anagrams_answers":["HAMMOCK","VOLVO","PINT"]},{"rt":null,"stimulus":"\u003cb\u003e\u003ccenter\u003e\u003ch2\u003e\u003cp\u003eVLVOO\u003c/p\u003e\u003c/h2\u003e\u003c/center\u003e\u003c/b\u003e","key_press":null,"trial_type":"html-keyboard-response","trial_index":10,"time_elapsed":113919,"internal_node_id":"0.0-3.1-1.1","responseType":"finish","participantID":"udb6a5wzrarg06q8x3pcgjlwsy36as5c","anagrams_seen":["KHAOMCM","VLVOO","PITN"],"anagrams_answers":["HAMMOCK","VOLVO","PINT"]},{"rt":5335,"stimulus":"\u003cp\u003e \u003ccenter\u003e How close are you towards solving this anagram?  \u003c/center\u003e \u003c/p\u003e","key_press":51,"trial_type":"html-keyboard-response","trial_index":11,"time_elapsed":119255,"internal_node_id":"0.0-3.1-2.1-0.1","responseType":"finish","participantID":"udb6a5wzrarg06q8x3pcgjlwsy36as5c","anagrams_seen":["KHAOMCM","VLVOO","PITN"],"anagrams_answers":["HAMMOCK","VOLVO","PINT"]},{"rt":17135,"responses":"{\"Q0\":\"Volvo\"}","conditions":"{\"Questions\":{\"Q_0\":\"\u003csmall\u003e\u003cp\u003eType your answer below:\u003c/p\u003e\u003c/small\u003e\"}}","trial_type":"survey-text-2","trial_index":12,"time_elapsed":136395,"internal_node_id":"0.0-3.1-2.1-1.1","responseType":"finish","participantID":"udb6a5wzrarg06q8x3pcgjlwsy36as5c","anagrams_seen":["KHAOMCM","VLVOO","PITN"],"anagrams_answers":["HAMMOCK","VOLVO","PINT"]},{"rt":2042,"stimulus":"\u003cblockquote\u003e\n  \u003cp\u003eCorrect answer! \u003cbr\u003e\u003cbr\u003e Press 'v' to continue.\u003c/p\u003e\n\u003c/blockquote\u003e","key_press":86,"trial_type":"html-keyboard-response","trial_index":13,"time_elapsed":138439,"internal_node_id":"0.0-3.1-3.1","responseType":"finish","participantID":"udb6a5wzrarg06q8x3pcgjlwsy36as5c","anagrams_seen":["KHAOMCM","VLVOO","PITN"],"anagrams_answers":["HAMMOCK","VOLVO","PINT"]},{"rt":4581,"responses":"{\"Q0\":9}","trial_type":"survey-likert","trial_index":14,"time_elapsed":143022,"internal_node_id":"0.0-3.1-4.1-0.1","responseType":"finish","participantID":"udb6a5wzrarg06q8x3pcgjlwsy36as5c","anagrams_seen":["KHAOMCM","VLVOO","PITN"],"anagrams_answers":["HAMMOCK","VOLVO","PINT"]},{"rt":1502,"stimulus":"\u003cblockquote\u003e\n  \u003cp\u003eNow the next anagram will be shown to you. \u003cbr\u003e\u003cbr\u003e Press 'v' to view the anagram.\u003c/p\u003e\n\u003c/blockquote\u003e","key_press":86,"trial_type":"html-keyboard-response","trial_index":15,"time_elapsed":144527,"internal_node_id":"0.0-3.2-0.2","responseType":"finish","participantID":"udb6a5wzrarg06q8x3pcgjlwsy36as5c","anagrams_seen":["KHAOMCM","VLVOO","PITN"],"anagrams_answers":["HAMMOCK","VOLVO","PINT"]},{"rt":null,"stimulus":"\u003cb\u003e\u003ccenter\u003e\u003ch2\u003e\u003cp\u003ePITN\u003c/p\u003e\u003c/h2\u003e\u003c/center\u003e\u003c/b\u003e","key_press":null,"trial_type":"html-keyboard-response","trial_index":16,"time_elapsed":146532,"internal_node_id":"0.0-3.2-1.2","responseType":"finish","participantID":"udb6a5wzrarg06q8x3pcgjlwsy36as5c","anagrams_seen":["KHAOMCM","VLVOO","PITN"],"anagrams_answers":["HAMMOCK","VOLVO","PINT"]},{"rt":2962,"stimulus":"\u003cp\u003e \u003ccenter\u003e How close are you towards solving this anagram?  \u003c/center\u003e \u003c/p\u003e","key_press":57,"trial_type":"html-keyboard-response","trial_index":17,"time_elapsed":149495,"internal_node_id":"0.0-3.2-2.2-0.2","responseType":"finish","participantID":"udb6a5wzrarg06q8x3pcgjlwsy36as5c","anagrams_seen":["KHAOMCM","VLVOO","PITN"],"anagrams_answers":["HAMMOCK","VOLVO","PINT"]},{"rt":7180,"responses":"{\"Q0\":\"Pint\"}","conditions":"{\"Questions\":{\"Q_0\":\"\u003csmall\u003e\u003cp\u003eType your answer below:\u003c/p\u003e\u003c/small\u003e\"}}","trial_type":"survey-text-2","trial_index":18,"time_elapsed":156679,"internal_node_id":"0.0-3.2-2.2-1.2","responseType":"finish","participantID":"udb6a5wzrarg06q8x3pcgjlwsy36as5c","anagrams_seen":["KHAOMCM","VLVOO","PITN"],"anagrams_answers":["HAMMOCK","VOLVO","PINT"]},{"rt":1742,"stimulus":"\u003cblockquote\u003e\n  \u003cp\u003eCorrect answer! \u003cbr\u003e\u003cbr\u003e Press 'v' to continue.\u003c/p\u003e\n\u003c/blockquote\u003e","key_press":86,"trial_type":"html-keyboard-response","trial_index":19,"time_elapsed":158423,"internal_node_id":"0.0-3.2-3.2","responseType":"finish","participantID":"udb6a5wzrarg06q8x3pcgjlwsy36as5c","anagrams_seen":["KHAOMCM","VLVOO","PITN"],"anagrams_answers":["HAMMOCK","VOLVO","PINT"]},{"rt":5507,"responses":"{\"Q0\":9}","trial_type":"survey-likert","trial_index":20,"time_elapsed":163933,"internal_node_id":"0.0-3.2-4.2-0.2","responseType":"finish","participantID":"udb6a5wzrarg06q8x3pcgjlwsy36as5c","anagrams_seen":["KHAOMCM","VLVOO","PITN"],"anagrams_answers":["HAMMOCK","VOLVO","PINT"]}],"__v":0}
{"_id":{"$oid":"5d672a0d77e5be0004e134e0"},"data":{"responseType":"start","participantID":"aze90kf7gql1toryosh6b15q0vck1sqq","anagrams_seen":["BLEL","PITN","HNATUYG"],"anagrams_answers":["BELL","PINT","NAUGHTY"]},"__v":0}
{"_id":{"$oid":"5d672a1177e5be0004e134e1"},"data":[{"rt":6378,"responses":"{\"Q0\":\" I consent to participate\"}","trial_type":"survey-multi-choice","trial_index":0,"time_elapsed":6382,"internal_node_id":"0.0-0.0","responseType":"finish","participantID":"rvzfdjbrh01ytrfj8145211a83frs3xp","anagrams_seen":["SROT","SONW","RECKL"],"anagrams_answers":["SORT","SNOW","CLERK"]},{"trial_type":"call-function","trial_index":1,"time_elapsed":6389,"internal_node_id":"0.0-1.0","responseType":"finish","participantID":"rvzfdjbrh01ytrfj8145211a83frs3xp","anagrams_seen":["SROT","SONW","RECKL"],"anagrams_answers":["SORT","SNOW","CLERK"]},{"view_history":"[{\"page_index\":0,\"viewing_time\":9048},{\"page_index\":1,\"viewing_time\":9887},{\"page_index\":2,\"viewing_time\":5544}]","rt":24481,"trial_type":"instructions","trial_index":2,"time_elapsed":30870,"internal_node_id":"0.0-2.0","responseType":"finish","participantID":"rvzfdjbrh01ytrfj8145211a83frs3xp","anagrams_seen":["SROT","SONW","RECKL"],"anagrams_answers":["SORT","SNOW","CLERK"]},{"rt":3052,"stimulus":"\u003cblockquote\u003e\n  \u003cp\u003eNow the next anagram will be shown to you. \u003cbr\u003e\u003cbr\u003e Press 'v' to view the anagram.\u003c/p\u003e\n\u003c/blockquote\u003e","key_press":86,"trial_type":"html-keyboard-response","trial_index":3,"time_elapsed":33924,"internal_node_id":"0.0-3.0-0.0","responseType":"finish","participantID":"rvzfdjbrh01ytrfj8145211a83frs3xp","anagrams_seen":["SROT","SONW","RECKL"],"anagrams_answers":["SORT","SNOW","CLERK"]},{"rt":null,"stimulus":"\u003cb\u003e\u003ccenter\u003e\u003ch2\u003e\u003cp\u003eSROT\u003c/p\u003e\u003c/h2\u003e\u003c/center\u003e\u003c/b\u003e","key_press":null,"trial_type":"html-keyboard-response","trial_index":4,"time_elapsed":35927,"internal_node_id":"0.0-3.0-1.0","responseType":"finish","participantID":"rvzfdjbrh01ytrfj8145211a83frs3xp","anagrams_seen":["SROT","SONW","RECKL"],"anagrams_answers":["SORT","SNOW","CLERK"]},{"rt":1771,"stimulus":"\u003cp\u003e \u003ccenter\u003e How close are you towards solving this anagram?  \u003c/center\u003e \u003c/p\u003e","key_press":57,"trial_type":"html-keyboard-response","trial_index":5,"time_elapsed":37700,"internal_node_id":"0.0-3.0-2.0-0.0","responseType":"finish","participantID":"rvzfdjbrh01ytrfj8145211a83frs3xp","anagrams_seen":["SROT","SONW","RECKL"],"anagrams_answers":["SORT","SNOW","CLERK"]},{"rt":20000,"responses":"{\"Q0\":\"tors\"}","trial_type":"survey-text-2","trial_index":6,"time_elapsed":57708,"internal_node_id":"0.0-3.0-2.0-1.0","responseType":"finish","participantID":"rvzfdjbrh01ytrfj8145211a83frs3xp","anagrams_seen":["SROT","SONW","RECKL"],"anagrams_answers":["SORT","SNOW","CLERK"]},{"rt":3443,"stimulus":"\u003cp\u003e \u003ccenter\u003e How close are you now? \u003c/center\u003e \u003c/p\u003e","key_press":57,"trial_type":"html-keyboard-response","trial_index":7,"time_elapsed":61153,"internal_node_id":"0.0-3.0-2.1-0.1","responseType":"finish","participantID":"rvzfdjbrh01ytrfj8145211a83frs3xp","anagrams_seen":["SROT","SONW","RECKL"],"anagrams_answers":["SORT","SNOW","CLERK"]},{"rt":4418,"responses":"{\"Q0\":\"sort\"}","conditions":"{\"Questions\":{\"Q_0\":\"\u003csmall\u003e\u003cp\u003eType your answer below:\u003c/p\u003e\u003c/small\u003e\"}}","trial_type":"survey-text-2","trial_index":8,"time_elapsed":65575,"internal_node_id":"0.0-3.0-2.1-1.1","responseType":"finish","participantID":"rvzfdjbrh01ytrfj8145211a83frs3xp","anagrams_seen":["SROT","SONW","RECKL"],"anagrams_answers":["SORT","SNOW","CLERK"]},{"rt":1308,"stimulus":"\u003cblockquote\u003e\n  \u003cp\u003eCorrect answer! \u003cbr\u003e\u003cbr\u003e Press 'v' to continue.\u003c/p\u003e\n\u003c/blockquote\u003e","key_press":86,"trial_type":"html-keyboard-response","trial_index":9,"time_elapsed":66884,"internal_node_id":"0.0-3.0-3.0","responseType":"finish","participantID":"rvzfdjbrh01ytrfj8145211a83frs3xp","anagrams_seen":["SROT","SONW","RECKL"],"anagrams_answers":["SORT","SNOW","CLERK"]},{"rt":6411,"responses":"{\"Q0\":9}","trial_type":"survey-likert","trial_index":10,"time_elapsed":73298,"internal_node_id":"0.0-3.0-4.0-0.0","responseType":"finish","participantID":"rvzfdjbrh01ytrfj8145211a83frs3xp","anagrams_seen":["SROT","SONW","RECKL"],"anagrams_answers":["SORT","SNOW","CLERK"]},{"rt":1256,"stimulus":"\u003cblockquote\u003e\n  \u003cp\u003eNow the next anagram will be shown to you. \u003cbr\u003e\u003cbr\u003e Press 'v' to view the anagram.\u003c/p\u003e\n\u003c/blockquote\u003e","key_press":86,"trial_type":"html-keyboard-response","trial_index":11,"time_elapsed":74556,"internal_node_id":"0.0-3.1-0.1","responseType":"finish","participantID":"rvzfdjbrh01ytrfj8145211a83frs3xp","anagrams_seen":["SROT","SONW","RECKL"],"anagrams_answers":["SORT","SNOW","CLERK"]},{"rt":null,"stimulus":"\u003cb\u003e\u003ccenter\u003e\u003ch2\u003e\u003cp\u003eSONW\u003c/p\u003e\u003c/h2\u003e\u003c/center\u003e\u003c/b\u003e","key_press":null,"trial_type":"html-keyboard-response","trial_index":12,"time_elapsed":76558,"internal_node_id":"0.0-3.1-1.1","responseType":"finish","participantID":"rvzfdjbrh01ytrfj8145211a83frs3xp","anagrams_seen":["SROT","SONW","RECKL"],"anagrams_answers":["SORT","SNOW","CLERK"]},{"rt":2762,"stimulus":"\u003cp\u003e \u003ccenter\u003e How close are you towards solving this anagram?  \u003c/center\u003e \u003c/p\u003e","key_press":57,"trial_type":"html-keyboard-response","trial_index":13,"time_elapsed":79320,"internal_node_id":"0.0-3.1-2.2-0.2","responseType":"finish","participantID":"rvzfdjbrh01ytrfj8145211a83frs3xp","anagrams_seen":["SROT","SONW","RECKL"],"anagrams_answers":["SORT","SNOW","CLERK"]},{"rt":1626,"responses":"{\"Q0\":\"snow\"}","conditions":"{\"Questions\":{\"Q_0\":\"\u003csmall\u003e\u003cp\u003eType your answer below:\u003c/p\u003e\u003c/small\u003e\"}}","trial_type":"survey-text-2","trial_index":14,"time_elapsed":80949,"internal_node_id":"0.0-3.1-2.2-1.2","responseType":"finish","participantID":"rvzfdjbrh01ytrfj8145211a83frs3xp","anagrams_seen":["SROT","SONW","RECKL"],"anagrams_answers":["SORT","SNOW","CLERK"]},{"rt":1110,"stimulus":"\u003cblockquote\u003e\n  \u003cp\u003eCorrect answer! \u003cbr\u003e\u003cbr\u003e Press 'v' to continue.\u003c/p\u003e\n\u003c/blockquote\u003e","key_press":86,"trial_type":"html-keyboard-response","trial_index":15,"time_elapsed":82060,"internal_node_id":"0.0-3.1-3.1","responseType":"finish","participantID":"rvzfdjbrh01ytrfj8145211a83frs3xp","anagrams_seen":["SROT","SONW","RECKL"],"anagrams_answers":["SORT","SNOW","CLERK"]},{"rt":3132,"responses":"{\"Q0\":0}","trial_type":"survey-likert","trial_index":16,"time_elapsed":85193,"internal_node_id":"0.0-3.1-4.1-0.1","responseType":"finish","participantID":"rvzfdjbrh01ytrfj8145211a83frs3xp","anagrams_seen":["SROT","SONW","RECKL"],"anagrams_answers":["SORT","SNOW","CLERK"]},{"rt":1092,"stimulus":"\u003cblockquote\u003e\n  \u003cp\u003eNow the next anagram will be shown to you. \u003cbr\u003e\u003cbr\u003e Press 'v' to view the anagram.\u003c/p\u003e\n\u003c/blockquote\u003e","key_press":86,"trial_type":"html-keyboard-response","trial_index":17,"time_elapsed":86286,"internal_node_id":"0.0-3.2-0.2","responseType":"finish","participantID":"rvzfdjbrh01ytrfj8145211a83frs3xp","anagrams_seen":["SROT","SONW","RECKL"],"anagrams_answers":["SORT","SNOW","CLERK"]},{"rt":null,"stimulus":"\u003cb\u003e\u003ccenter\u003e\u003ch2\u003e\u003cp\u003eRECKL\u003c/p\u003e\u003c/h2\u003e\u003c/center\u003e\u003c/b\u003e","key_press":null,"trial_type":"html-keyboard-response","trial_index":18,"time_elapsed":88288,"internal_node_id":"0.0-3.2-1.2","responseType":"finish","participantID":"rvzfdjbrh01ytrfj8145211a83frs3xp","anagrams_seen":["SROT","SONW","RECKL"],"anagrams_answers":["SORT","SNOW","CLERK"]},{"rt":3753,"stimulus":"\u003cp\u003e \u003ccenter\u003e How close are you towards solving this anagram?  \u003c/center\u003e \u003c/p\u003e","key_press":57,"trial_type":"html-keyboard-response","trial_index":19,"time_elapsed":92042,"internal_node_id":"0.0-3.2-2.3-0.3","responseType":"finish","participantID":"rvzfdjbrh01ytrfj8145211a83frs3xp","anagrams_seen":["SROT","SONW","RECKL"],"anagrams_answers":["SORT","SNOW","CLERK"]},{"rt":2894,"responses":"{\"Q0\":\"clerk\"}","conditions":"{\"Questions\":{\"Q_0\":\"\u003csmall\u003e\u003cp\u003eType your answer below:\u003c/p\u003e\u003c/small\u003e\"}}","trial_type":"survey-text-2","trial_index":20,"time_elapsed":94938,"internal_node_id":"0.0-3.2-2.3-1.3","responseType":"finish","participantID":"rvzfdjbrh01ytrfj8145211a83frs3xp","anagrams_seen":["SROT","SONW","RECKL"],"anagrams_answers":["SORT","SNOW","CLERK"]},{"rt":1029,"stimulus":"\u003cblockquote\u003e\n  \u003cp\u003eCorrect answer! \u003cbr\u003e\u003cbr\u003e Press 'v' to continue.\u003c/p\u003e\n\u003c/blockquote\u003e","key_press":86,"trial_type":"html-keyboard-response","trial_index":21,"time_elapsed":95969,"internal_node_id":"0.0-3.2-3.2","responseType":"finish","participantID":"rvzfdjbrh01ytrfj8145211a83frs3xp","anagrams_seen":["SROT","SONW","RECKL"],"anagrams_answers":["SORT","SNOW","CLERK"]},{"rt":2557,"responses":"{\"Q0\":1}","trial_type":"survey-likert","trial_index":22,"time_elapsed":98527,"internal_node_id":"0.0-3.2-4.2-0.2","responseType":"finish","participantID":"rvzfdjbrh01ytrfj8145211a83frs3xp","anagrams_seen":["SROT","SONW","RECKL"],"anagrams_answers":["SORT","SNOW","CLERK"]}],"__v":0}
{"_id":{"$oid":"5d672a2277e5be0004e134e2"},"data":[{"rt":5892,"responses":"{\"Q0\":\" I consent to participate\"}","trial_type":"survey-multi-choice","trial_index":0,"time_elapsed":5901,"internal_node_id":"0.0-0.0","responseType":"finish","participantID":"8hbrobut32vsfjx5h25476cam70893os","anagrams_seen":["SROT","SSOIA","PITN"],"anagrams_answers":["SORT","OASIS","PINT"]},{"trial_type":"call-function","trial_index":1,"time_elapsed":5911,"internal_node_id":"0.0-1.0","responseType":"finish","participantID":"8hbrobut32vsfjx5h25476cam70893os","anagrams_seen":["SROT","SSOIA","PITN"],"anagrams_answers":["SORT","OASIS","PINT"]},{"view_history":"[{\"page_index\":0,\"viewing_time\":14636},{\"page_index\":1,\"viewing_time\":11400},{\"page_index\":2,\"viewing_time\":8128}]","rt":34165,"trial_type":"instructions","trial_index":2,"time_elapsed":40076,"internal_node_id":"0.0-2.0","responseType":"finish","participantID":"8hbrobut32vsfjx5h25476cam70893os","anagrams_seen":["SROT","SSOIA","PITN"],"anagrams_answers":["SORT","OASIS","PINT"]},{"rt":3508,"stimulus":"\u003cblockquote\u003e\n  \u003cp\u003eNow the next anagram will be shown to you. \u003cbr\u003e\u003cbr\u003e Press 'v' to view the anagram.\u003c/p\u003e\n\u003c/blockquote\u003e","key_press":86,"trial_type":"html-keyboard-response","trial_index":3,"time_elapsed":43586,"internal_node_id":"0.0-3.0-0.0","responseType":"finish","participantID":"8hbrobut32vsfjx5h25476cam70893os","anagrams_seen":["SROT","SSOIA","PITN"],"anagrams_answers":["SORT","OASIS","PINT"]},{"rt":null,"stimulus":"\u003cb\u003e\u003ccenter\u003e\u003ch2\u003e\u003cp\u003eSROT\u003c/p\u003e\u003c/h2\u003e\u003c/center\u003e\u003c/b\u003e","key_press":null,"trial_type":"html-keyboard-response","trial_index":4,"time_elapsed":45595,"internal_node_id":"0.0-3.0-1.0","responseType":"finish","participantID":"8hbrobut32vsfjx5h25476cam70893os","anagrams_seen":["SROT","SSOIA","PITN"],"anagrams_answers":["SORT","OASIS","PINT"]},{"rt":10081,"stimulus":"\u003cp\u003e \u003ccenter\u003e How close are you towards solving this anagram?  \u003c/center\u003e \u003c/p\u003e","key_press":57,"trial_type":"html-keyboard-response","trial_index":5,"time_elapsed":55678,"internal_node_id":"0.0-3.0-2.0-0.0","responseType":"finish","participantID":"8hbrobut32vsfjx5h25476cam70893os","anagrams_seen":["SROT","SSOIA","PITN"],"anagrams_answers":["SORT","OASIS","PINT"]},{"rt":4155,"responses":"{\"Q0\":\"sort\"}","conditions":"{\"Questions\":{\"Q_0\":\"\u003csmall\u003e\u003cp\u003eType your answer below:\u003c/p\u003e\u003c/small\u003e\"}}","trial_type":"survey-text-2","trial_index":6,"time_elapsed":59852,"internal_node_id":"0.0-3.0-2.0-1.0","responseType":"finish","participantID":"8hbrobut32vsfjx5h25476cam70893os","anagrams_seen":["SROT","SSOIA","PITN"],"anagrams_answers":["SORT","OASIS","PINT"]},{"rt":1759,"stimulus":"\u003cblockquote\u003e\n  \u003cp\u003eCorrect answer! \u003cbr\u003e\u003cbr\u003e Press 'v' to continue.\u003c/p\u003e\n\u003c/blockquote\u003e","key_press":86,"trial_type":"html-keyboard-response","trial_index":7,"time_elapsed":61614,"internal_node_id":"0.0-3.0-3.0","responseType":"finish","participantID":"8hbrobut32vsfjx5h25476cam70893os","anagrams_seen":["SROT","SSOIA","PITN"],"anagrams_answers":["SORT","OASIS","PINT"]},{"rt":7258,"responses":"{\"Q0\":7}","trial_type":"survey-likert","trial_index":8,"time_elapsed":68877,"internal_node_id":"0.0-3.0-4.0-0.0","responseType":"finish","participantID":"8hbrobut32vsfjx5h25476cam70893os","anagrams_seen":["SROT","SSOIA","PITN"],"anagrams_answers":["SORT","OASIS","PINT"]},{"rt":2861,"stimulus":"\u003cblockquote\u003e\n  \u003cp\u003eNow the next anagram will be shown to you. \u003cbr\u003e\u003cbr\u003e Press 'v' to view the anagram.\u003c/p\u003e\n\u003c/blockquote\u003e","key_press":86,"trial_type":"html-keyboard-response","trial_index":9,"time_elapsed":71744,"internal_node_id":"0.0-3.1-0.1","responseType":"finish","participantID":"8hbrobut32vsfjx5h25476cam70893os","anagrams_seen":["SROT","SSOIA","PITN"],"anagrams_answers":["SORT","OASIS","PINT"]},{"rt":null,"stimulus":"\u003cb\u003e\u003ccenter\u003e\u003ch2\u003e\u003cp\u003eSSOIA\u003c/p\u003e\u003c/h2\u003e\u003c/center\u003e\u003c/b\u003e","key_press":null,"trial_type":"html-keyboard-response","trial_index":10,"time_elapsed":73748,"internal_node_id":"0.0-3.1-1.1","responseType":"finish","participantID":"8hbrobut32vsfjx5h25476cam70893os","anagrams_seen":["SROT","SSOIA","PITN"],"anagrams_answers":["SORT","OASIS","PINT"]},{"rt":9370,"stimulus":"\u003cp\u003e \u003ccenter\u003e How close are you towards solving this anagram?  \u003c/center\u003e \u003c/p\u003e","key_press":48,"trial_type":"html-keyboard-response","trial_index":11,"time_elapsed":83119,"internal_node_id":"0.0-3.1-2.1-0.1","responseType":"finish","participantID":"8hbrobut32vsfjx5h25476cam70893os","anagrams_seen":["SROT","SSOIA","PITN"],"anagrams_answers":["SORT","OASIS","PINT"]},{"rt":20001,"responses":"{\"Q0\":\"\"}","trial_type":"survey-text-2","trial_index":12,"time_elapsed":103128,"internal_node_id":"0.0-3.1-2.1-1.1","responseType":"finish","participantID":"8hbrobut32vsfjx5h25476cam70893os","anagrams_seen":["SROT","SSOIA","PITN"],"anagrams_answers":["SORT","OASIS","PINT"]},{"rt":3126,"stimulus":"\u003cp\u003e \u003ccenter\u003e How close are you now? \u003c/center\u003e \u003c/p\u003e","key_press":48,"trial_type":"html-keyboard-response","trial_index":13,"time_elapsed":106256,"internal_node_id":"0.0-3.1-2.2-0.2","responseType":"finish","participantID":"8hbrobut32vsfjx5h25476cam70893os","anagrams_seen":["SROT","SSOIA","PITN"],"anagrams_answers":["SORT","OASIS","PINT"]},{"rt":3447,"responses":"{\"Q0\":\"next\"}","conditions":"{\"Questions\":{\"Q_0\":\"\u003csmall\u003e\u003cp\u003eType your answer below:\u003c/p\u003e\u003c/small\u003e\"}}","trial_type":"survey-text-2","trial_index":14,"time_elapsed":109708,"internal_node_id":"0.0-3.1-2.2-1.2","responseType":"finish","participantID":"8hbrobut32vsfjx5h25476cam70893os","anagrams_seen":["SROT","SSOIA","PITN"],"anagrams_answers":["SORT","OASIS","PINT"]},{"rt":2113,"stimulus":"\u003cblockquote\u003e\n  \u003cp\u003eYou chose to move to the next anagram. \u003cbr\u003e\u003cbr\u003e Press 'v' to continue.\u003c/p\u003e\n\u003c/blockquote\u003e","key_press":86,"trial_type":"html-keyboard-response","trial_index":15,"time_elapsed":111822,"internal_node_id":"0.0-3.1-3.1","responseType":"finish","participantID":"8hbrobut32vsfjx5h25476cam70893os","anagrams_seen":["SROT","SSOIA","PITN"],"anagrams_answers":["SORT","OASIS","PINT"]},{"rt":3482,"responses":"{\"Q0\":0}","trial_type":"survey-likert","trial_index":16,"time_elapsed":115308,"internal_node_id":"0.0-3.1-4.1-0.1","responseType":"finish","participantID":"8hbrobut32vsfjx5h25476cam70893os","anagrams_seen":["SROT","SSOIA","PITN"],"anagrams_answers":["SORT","OASIS","PINT"]},{"rt":1656,"stimulus":"\u003cblockquote\u003e\n  \u003cp\u003eNow the next anagram will be shown to you. \u003cbr\u003e\u003cbr\u003e Press 'v' to view the anagram.\u003c/p\u003e\n\u003c/blockquote\u003e","key_press":86,"trial_type":"html-keyboard-response","trial_index":17,"time_elapsed":116969,"internal_node_id":"0.0-3.2-0.2","responseType":"finish","participantID":"8hbrobut32vsfjx5h25476cam70893os","anagrams_seen":["SROT","SSOIA","PITN"],"anagrams_answers":["SORT","OASIS","PINT"]},{"rt":null,"stimulus":"\u003cb\u003e\u003ccenter\u003e\u003ch2\u003e\u003cp\u003ePITN\u003c/p\u003e\u003c/h2\u003e\u003c/center\u003e\u003c/b\u003e","key_press":null,"trial_type":"html-keyboard-response","trial_index":18,"time_elapsed":118973,"internal_node_id":"0.0-3.2-1.2","responseType":"finish","participantID":"8hbrobut32vsfjx5h25476cam70893os","anagrams_seen":["SROT","SSOIA","PITN"],"anagrams_answers":["SORT","OASIS","PINT"]},{"rt":1712,"stimulus":"\u003cp\u003e \u003ccenter\u003e How close are you towards solving this anagram?  \u003c/center\u003e \u003c/p\u003e","key_press":57,"trial_type":"html-keyboard-response","trial_index":19,"time_elapsed":120687,"internal_node_id":"0.0-3.2-2.3-0.3","responseType":"finish","participantID":"8hbrobut32vsfjx5h25476cam70893os","anagrams_seen":["SROT","SSOIA","PITN"],"anagrams_answers":["SORT","OASIS","PINT"]},{"rt":2373,"responses":"{\"Q0\":\"pint\"}","conditions":"{\"Questions\":{\"Q_0\":\"\u003csmall\u003e\u003cp\u003eType your answer below:\u003c/p\u003e\u003c/small\u003e\"}}","trial_type":"survey-text-2","trial_index":20,"time_elapsed":123068,"internal_node_id":"0.0-3.2-2.3-1.3","responseType":"finish","participantID":"8hbrobut32vsfjx5h25476cam70893os","anagrams_seen":["SROT","SSOIA","PITN"],"anagrams_answers":["SORT","OASIS","PINT"]},{"rt":1410,"stimulus":"\u003cblockquote\u003e\n  \u003cp\u003eCorrect answer! \u003cbr\u003e\u003cbr\u003e Press 'v' to continue.\u003c/p\u003e\n\u003c/blockquote\u003e","key_press":86,"trial_type":"html-keyboard-response","trial_index":21,"time_elapsed":124480,"internal_node_id":"0.0-3.2-3.2","responseType":"finish","participantID":"8hbrobut32vsfjx5h25476cam70893os","anagrams_seen":["SROT","SSOIA","PITN"],"anagrams_answers":["SORT","OASIS","PINT"]},{"rt":2832,"responses":"{\"Q0\":9}","trial_type":"survey-likert","trial_index":22,"time_elapsed":127316,"internal_node_id":"0.0-3.2-4.2-0.2","responseType":"finish","participantID":"8hbrobut32vsfjx5h25476cam70893os","anagrams_seen":["SROT","SSOIA","PITN"],"anagrams_answers":["SORT","OASIS","PINT"]}],"__v":0}
{"_id":{"$oid":"5d672a2377e5be0004e134e3"},"data":[{"rt":10786,"responses":"{\"Q0\":\" I consent to participate\"}","trial_type":"survey-multi-choice","trial_index":0,"time_elapsed":10794,"internal_node_id":"0.0-0.0","responseType":"finish","participantID":"ec0w77rqyq8b7g78u56gyvbub8bdcqqn","anagrams_seen":["SSOIA","IORCNAG","YJAKWLA"],"anagrams_answers":["OASIS","ORGANIC","JAYWALK"]},{"trial_type":"call-function","trial_index":1,"time_elapsed":10801,"internal_node_id":"0.0-1.0","responseType":"finish","participantID":"ec0w77rqyq8b7g78u56gyvbub8bdcqqn","anagrams_seen":["SSOIA","IORCNAG","YJAKWLA"],"anagrams_answers":["OASIS","ORGANIC","JAYWALK"]},{"view_history":"[{\"page_index\":0,\"viewing_time\":18367},{\"page_index\":1,\"viewing_time\":19206},{\"page_index\":2,\"viewing_time\":11174}]","rt":48751,"trial_type":"instructions","trial_index":2,"time_elapsed":59555,"internal_node_id":"0.0-2.0","responseType":"finish","participantID":"ec0w77rqyq8b7g78u56gyvbub8bdcqqn","anagrams_seen":["SSOIA","IORCNAG","YJAKWLA"],"anagrams_answers":["OASIS","ORGANIC","JAYWALK"]},{"rt":4283,"stimulus":"\u003cblockquote\u003e\n  \u003cp\u003eNow the next anagram will be shown to you. \u003cbr\u003e\u003cbr\u003e Press 'v' to view the anagram.\u003c/p\u003e\n\u003c/blockquote\u003e","key_press":86,"trial_type":"html-keyboard-response","trial_index":3,"time_elapsed":63842,"internal_node_id":"0.0-3.0-0.0","responseType":"finish","participantID":"ec0w77rqyq8b7g78u56gyvbub8bdcqqn","anagrams_seen":["SSOIA","IORCNAG","YJAKWLA"],"anagrams_answers":["OASIS","ORGANIC","JAYWALK"]},{"rt":null,"stimulus":"\u003cb\u003e\u003ccenter\u003e\u003ch2\u003e\u003cp\u003eSSOIA\u003c/p\u003e\u003c/h2\u003e\u003c/center\u003e\u003c/b\u003e","key_press":null,"trial_type":"html-keyboard-response","trial_index":4,"time_elapsed":65857,"internal_node_id":"0.0-3.0-1.0","responseType":"finish","participantID":"ec0w77rqyq8b7g78u56gyvbub8bdcqqn","anagrams_seen":["SSOIA","IORCNAG","YJAKWLA"],"anagrams_answers":["OASIS","ORGANIC","JAYWALK"]},{"rt":1966,"stimulus":"\u003cp\u003e \u003ccenter\u003e How close are you towards solving this anagram?  \u003c/center\u003e \u003c/p\u003e","key_press":48,"trial_type":"html-keyboard-response","trial_index":5,"time_elapsed":67828,"internal_node_id":"0.0-3.0-2.0-0.0","responseType":"finish","participantID":"ec0w77rqyq8b7g78u56gyvbub8bdcqqn","anagrams_seen":["SSOIA","IORCNAG","YJAKWLA"],"anagrams_answers":["OASIS","ORGANIC","JAYWALK"]},{"rt":20001,"responses":"{\"Q0\":\"\"}","trial_type":"survey-text-2","trial_index":6,"time_elapsed":87859,"internal_node_id":"0.0-3.0-2.0-1.0","responseType":"finish","participantID":"ec0w77rqyq8b7g78u56gyvbub8bdcqqn","anagrams_seen":["SSOIA","IORCNAG","YJAKWLA"],"anagrams_answers":["OASIS","ORGANIC","JAYWALK"]},{"rt":5092,"stimulus":"\u003cp\u003e \u003ccenter\u003e How close are you now? \u003c/center\u003e \u003c/p\u003e","key_press":48,"trial_type":"html-keyboard-response","trial_index":7,"time_elapsed":92961,"internal_node_id":"0.0-3.0-2.1-0.1","responseType":"finish","participantID":"ec0w77rqyq8b7g78u56gyvbub8bdcqqn","anagrams_seen":["SSOIA","IORCNAG","YJAKWLA"],"anagrams_answers":["OASIS","ORGANIC","JAYWALK"]},{"rt":10464,"responses":"{\"Q0\":\"oasis\"}","conditions":"{\"Questions\":{\"Q_0\":\"\u003csmall\u003e\u003cp\u003eType your answer below:\u003c/p\u003e\u003c/small\u003e\"}}","trial_type":"survey-text-2","trial_index":8,"time_elapsed":103432,"internal_node_id":"0.0-3.0-2.1-1.1","responseType":"finish","participantID":"ec0w77rqyq8b7g78u56gyvbub8bdcqqn","anagrams_seen":["SSOIA","IORCNAG","YJAKWLA"],"anagrams_answers":["OASIS","ORGANIC","JAYWALK"]},{"rt":2327,"stimulus":"\u003cblockquote\u003e\n  \u003cp\u003eCorrect answer! \u003cbr\u003e\u003cbr\u003e Press 'v' to continue.\u003c/p\u003e\n\u003c/blockquote\u003e","key_press":86,"trial_type":"html-keyboard-response","trial_index":9,"time_elapsed":105764,"internal_node_id":"0.0-3.0-3.0","responseType":"finish","participantID":"ec0w77rqyq8b7g78u56gyvbub8bdcqqn","anagrams_seen":["SSOIA","IORCNAG","YJAKWLA"],"anagrams_answers":["OASIS","ORGANIC","JAYWALK"]},{"rt":7361,"responses":"{\"Q0\":9}","trial_type":"survey-likert","trial_index":10,"time_elapsed":113132,"internal_node_id":"0.0-3.0-4.0-0.0","responseType":"finish","participantID":"ec0w77rqyq8b7g78u56gyvbub8bdcqqn","anagrams_seen":["SSOIA","IORCNAG","YJAKWLA"],"anagrams_answers":["OASIS","ORGANIC","JAYWALK"]},{"rt":2417,"stimulus":"\u003cblockquote\u003e\n  \u003cp\u003eNow the next anagram will be shown to you. \u003cbr\u003e\u003cbr\u003e Press 'v' to view the anagram.\u003c/p\u003e\n\u003c/blockquote\u003e","key_press":86,"trial_type":"html-keyboard-response","trial_index":11,"time_elapsed":115553,"internal_node_id":"0.0-3.1-0.1","responseType":"finish","participantID":"ec0w77rqyq8b7g78u56gyvbub8bdcqqn","anagrams_seen":["SSOIA","IORCNAG","YJAKWLA"],"anagrams_answers":["OASIS","ORGANIC","JAYWALK"]},{"rt":null,"stimulus":"\u003cb\u003e\u003ccenter\u003e\u003ch2\u003e\u003cp\u003eIORCNAG\u003c/p\u003e\u003c/h2\u003e\u003c/center\u003e\u003c/b\u003e","key_press":null,"trial_type":"html-keyboard-response","trial_index":12,"time_elapsed":117557,"internal_node_id":"0.0-3.1-1.1","responseType":"finish","participantID":"ec0w77rqyq8b7g78u56gyvbub8bdcqqn","anagrams_seen":["SSOIA","IORCNAG","YJAKWLA"],"anagrams_answers":["OASIS","ORGANIC","JAYWALK"]},{"rt":1906,"stimulus":"\u003cp\u003e \u003ccenter\u003e How close are you towards solving this anagram?  \u003c/center\u003e \u003c/p\u003e","key_press":48,"trial_type":"html-keyboard-response","trial_index":13,"time_elapsed":119465,"internal_node_id":"0.0-3.1-2.2-0.2","responseType":"finish","participantID":"ec0w77rqyq8b7g78u56gyvbub8bdcqqn","anagrams_seen":["SSOIA","IORCNAG","YJAKWLA"],"anagrams_answers":["OASIS","ORGANIC","JAYWALK"]},{"rt":20000,"responses":"{\"Q0\":\"\"}","trial_type":"survey-text-2","trial_index":14,"time_elapsed":139478,"internal_node_id":"0.0-3.1-2.2-1.2","responseType":"finish","participantID":"ec0w77rqyq8b7g78u56gyvbub8bdcqqn","anagrams_seen":["SSOIA","IORCNAG","YJAKWLA"],"anagrams_answers":["OASIS","ORGANIC","JAYWALK"]},{"rt":2161,"stimulus":"\u003cp\u003e \u003ccenter\u003e How close are you now? \u003c/center\u003e \u003c/p\u003e","key_press":48,"trial_type":"html-keyboard-response","trial_index":15,"time_elapsed":141643,"internal_node_id":"0.0-3.1-2.3-0.3","responseType":"finish","participantID":"ec0w77rqyq8b7g78u56gyvbub8bdcqqn","anagrams_seen":["SSOIA","IORCNAG","YJAKWLA"],"anagrams_answers":["OASIS","ORGANIC","JAYWALK"]},{"rt":20001,"responses":"{\"Q0\":\"\"}","trial_type":"survey-text-2","trial_index":16,"time_elapsed":161652,"internal_node_id":"0.0-3.1-2.3-1.3","responseType":"finish","participantID":"ec0w77rqyq8b7g78u56gyvbub8bdcqqn","anagrams_seen":["SSOIA","IORCNAG","YJAKWLA"],"anagrams_answers":["OASIS","ORGANIC","JAYWALK"]},{"rt":2483,"stimulus":"\u003cp\u003e \u003ccenter\u003e How close are you now? \u003c/center\u003e \u003c/p\u003e","key_press":48,"trial_type":"html-keyboard-response","trial_index":17,"time_elapsed":164140,"internal_node_id":"0.0-3.1-2.4-0.4","responseType":"finish","participantID":"ec0w77rqyq8b7g78u56gyvbub8bdcqqn","anagrams_seen":["SSOIA","IORCNAG","YJAKWLA"],"anagrams_answers":["OASIS","ORGANIC","JAYWALK"]},{"rt":20001,"responses":"{\"Q0\":\"a\"}","trial_type":"survey-text-2","trial_index":18,"time_elapsed":184150,"internal_node_id":"0.0-3.1-2.4-1.4","responseType":"finish","participantID":"ec0w77rqyq8b7g78u56gyvbub8bdcqqn","anagrams_seen":["SSOIA","IORCNAG","YJAKWLA"],"anagrams_answers":["OASIS","ORGANIC","JAYWALK"]},{"rt":1994,"stimulus":"\u003cp\u003e \u003ccenter\u003e How close are you now? \u003c/center\u003e \u003c/p\u003e","key_press":48,"trial_type":"html-keyboard-response","trial_index":19,"time_elapsed":186147,"internal_node_id":"0.0-3.1-2.5-0.5","responseType":"finish","participantID":"ec0w77rqyq8b7g78u56gyvbub8bdcqqn","anagrams_seen":["SSOIA","IORCNAG","YJAKWLA"],"anagrams_answers":["OASIS","ORGANIC","JAYWALK"]},{"rt":20001,"responses":"{\"Q0\":\"\"}","trial_type":"survey-text-2","trial_index":20,"time_elapsed":206158,"internal_node_id":"0.0-3.1-2.5-1.5","responseType":"finish","participantID":"ec0w77rqyq8b7g78u56gyvbub8bdcqqn","anagrams_seen":["SSOIA","IORCNAG","YJAKWLA"],"anagrams_answers":["OASIS","ORGANIC","JAYWALK"]},{"rt":2035,"stimulus":"\u003cp\u003e \u003ccenter\u003e How close are you now? \u003c/center\u003e \u003c/p\u003e","key_press":48,"trial_type":"html-keyboard-response","trial_index":21,"time_elapsed":208196,"internal_node_id":"0.0-3.1-2.6-0.6","responseType":"finish","participantID":"ec0w77rqyq8b7g78u56gyvbub8bdcqqn","anagrams_seen":["SSOIA","IORCNAG","YJAKWLA"],"anagrams_answers":["OASIS","ORGANIC","JAYWALK"]},{"rt":4402,"responses":"{\"Q0\":\"NEXT\"}","conditions":"{\"Questions\":{\"Q_0\":\"\u003csmall\u003e\u003cp\u003eType your answer below:\u003c/p\u003e\u003c/small\u003e\"}}","trial_type":"survey-text-2","trial_index":22,"time_elapsed":212602,"internal_node_id":"0.0-3.1-2.6-1.6","responseType":"finish","participantID":"ec0w77rqyq8b7g78u56gyvbub8bdcqqn","anagrams_seen":["SSOIA","IORCNAG","YJAKWLA"],"anagrams_answers":["OASIS","ORGANIC","JAYWALK"]},{"rt":2759,"stimulus":"\u003cblockquote\u003e\n  \u003cp\u003eYou chose to move to the next anagram. \u003cbr\u003e\u003cbr\u003e Press 'v' to continue.\u003c/p\u003e\n\u003c/blockquote\u003e","key_press":86,"trial_type":"html-keyboard-response","trial_index":23,"time_elapsed":215364,"internal_node_id":"0.0-3.1-3.1","responseType":"finish","participantID":"ec0w77rqyq8b7g78u56gyvbub8bdcqqn","anagrams_seen":["SSOIA","IORCNAG","YJAKWLA"],"anagrams_answers":["OASIS","ORGANIC","JAYWALK"]},{"rt":4283,"responses":"{\"Q0\":0}","trial_type":"survey-likert","trial_index":24,"time_elapsed":219654,"internal_node_id":"0.0-3.1-4.1-0.1","responseType":"finish","participantID":"ec0w77rqyq8b7g78u56gyvbub8bdcqqn","anagrams_seen":["SSOIA","IORCNAG","YJAKWLA"],"anagrams_answers":["OASIS","ORGANIC","JAYWALK"]},{"rt":1991,"stimulus":"\u003cblockquote\u003e\n  \u003cp\u003eNow the next anagram will be shown to you. \u003cbr\u003e\u003cbr\u003e Press 'v' to view the anagram.\u003c/p\u003e\n\u003c/blockquote\u003e","key_press":86,"trial_type":"html-keyboard-response","trial_index":25,"time_elapsed":221647,"internal_node_id":"0.0-3.2-0.2","responseType":"finish","participantID":"ec0w77rqyq8b7g78u56gyvbub8bdcqqn","anagrams_seen":["SSOIA","IORCNAG","YJAKWLA"],"anagrams_answers":["OASIS","ORGANIC","JAYWALK"]},{"rt":null,"stimulus":"\u003cb\u003e\u003ccenter\u003e\u003ch2\u003e\u003cp\u003eYJAKWLA\u003c/p\u003e\u003c/h2\u003e\u003c/center\u003e\u003c/b\u003e","key_press":null,"trial_type":"html-keyboard-response","trial_index":26,"time_elapsed":223651,"internal_node_id":"0.0-3.2-1.2","responseType":"finish","participantID":"ec0w77rqyq8b7g78u56gyvbub8bdcqqn","anagrams_seen":["SSOIA","IORCNAG","YJAKWLA"],"anagrams_answers":["OASIS","ORGANIC","JAYWALK"]},{"rt":2732,"stimulus":"\u003cp\u003e \u003ccenter\u003e How close are you towards solving this anagram?  \u003c/center\u003e \u003c/p\u003e","key_press":48,"trial_type":"html-keyboard-response","trial_index":27,"time_elapsed":226385,"internal_node_id":"0.0-3.2-2.7-0.7","responseType":"finish","participantID":"ec0w77rqyq8b7g78u56gyvbub8bdcqqn","anagrams_seen":["SSOIA","IORCNAG","YJAKWLA"],"anagrams_answers":["OASIS","ORGANIC","JAYWALK"]},{"rt":18689,"responses":"{\"Q0\":\"jaywalk\"}","conditions":"{\"Questions\":{\"Q_0\":\"\u003csmall\u003e\u003cp\u003eType your answer below:\u003c/p\u003e\u003c/small\u003e\"}}","trial_type":"survey-text-2","trial_index":28,"time_elapsed":245078,"internal_node_id":"0.0-3.2-2.7-1.7","responseType":"finish","participantID":"ec0w77rqyq8b7g78u56gyvbub8bdcqqn","anagrams_seen":["SSOIA","IORCNAG","YJAKWLA"],"anagrams_answers":["OASIS","ORGANIC","JAYWALK"]},{"rt":1867,"stimulus":"\u003cblockquote\u003e\n  \u003cp\u003eCorrect answer! \u003cbr\u003e\u003cbr\u003e Press 'v' to continue.\u003c/p\u003e\n\u003c/blockquote\u003e","key_press":86,"trial_type":"html-keyboard-response","trial_index":29,"time_elapsed":246950,"internal_node_id":"0.0-3.2-3.2","responseType":"finish","participantID":"ec0w77rqyq8b7g78u56gyvbub8bdcqqn","anagrams_seen":["SSOIA","IORCNAG","YJAKWLA"],"anagrams_answers":["OASIS","ORGANIC","JAYWALK"]},{"rt":6821,"responses":"{\"Q0\":8}","trial_type":"survey-likert","trial_index":30,"time_elapsed":253777,"internal_node_id":"0.0-3.2-4.2-0.2","responseType":"finish","participantID":"ec0w77rqyq8b7g78u56gyvbub8bdcqqn","anagrams_seen":["SSOIA","IORCNAG","YJAKWLA"],"anagrams_answers":["OASIS","ORGANIC","JAYWALK"]}],"__v":0}
