{"_id":{"$oid":"5d49c3576f29f700043efde0"},"data":{"responseType":"start","participantID":"sw4oxpb47opv663za7wrcjt1d4v4cpp7"},"__v":0}
{"_id":{"$oid":"5d49c3a26f29f700043efde1"},"data":{"responseType":"start","participantID":"vy3dql7ofymgnccmw3nvntujx4rlspug"},"__v":0}
{"_id":{"$oid":"5d49c3ff6f29f700043efde2"},"data":[{"rt":26488,"responses":"{\"Q0\":\" I consent to participate\"}","trial_type":"survey-multi-choice","trial_index":0,"time_elapsed":26494,"internal_node_id":"0.0-0.0","responseType":"finish","participantID":"vy3dql7ofymgnccmw3nvntujx4rlspug"},{"trial_type":"call-function","trial_index":1,"time_elapsed":26498,"internal_node_id":"0.0-1.0","responseType":"finish","participantID":"vy3dql7ofymgnccmw3nvntujx4rlspug"},{"view_history":"[{\"page_index\":0,\"viewing_time\":5117},{\"page_index\":1,\"viewing_time\":5706}]","rt":10823,"trial_type":"instructions","trial_index":2,"time_elapsed":37322,"internal_node_id":"0.0-2.0","responseType":"finish","participantID":"vy3dql7ofymgnccmw3nvntujx4rlspug"},{"rt":2136,"stimulus":"\u003cblockquote\u003e\n  \u003cp\u003eNow an anagram will be shown to you. \u003cbr\u003e\u003cbr\u003e Press 'v' to view the anagram.\u003c/p\u003e\n\u003c/blockquote\u003e","key_press":86,"trial_type":"html-keyboard-response","trial_index":3,"time_elapsed":39459,"internal_node_id":"0.0-3.0-0.0","responseType":"finish","participantID":"vy3dql7ofymgnccmw3nvntujx4rlspug"},{"rt":null,"stimulus":"\u003cb\u003e\u003ccenter\u003e\u003ch2\u003e\u003cp\u003eTEH\u003c/p\u003e\u003c/h2\u003e\u003c/center\u003e\u003c/b\u003e","key_press":null,"trial_type":"html-keyboard-response","trial_index":4,"time_elapsed":39962,"internal_node_id":"0.0-3.0-1.0","responseType":"finish","participantID":"vy3dql7ofymgnccmw3nvntujx4rlspug"},{"rt":5171.320000001288,"response":"0","stimulus":"\u003cp\u003eHow long do you think it will take you to solve this anagram?\u003c/p\u003e","trial_type":"html-slider-response","trial_index":5,"time_elapsed":45135,"internal_node_id":"0.0-3.0-2.0","responseType":"finish","participantID":"vy3dql7ofymgnccmw3nvntujx4rlspug"},{"rt":2817,"responses":"{\"Q0\":\"the\"}","trial_type":"survey-text","trial_index":6,"time_elapsed":47953,"internal_node_id":"0.0-3.0-3.0-0.0","responseType":"finish","participantID":"vy3dql7ofymgnccmw3nvntujx4rlspug"},{"rt":4222,"responses":"{\"Q0\":5}","trial_type":"survey-likert","trial_index":7,"time_elapsed":52178,"internal_node_id":"0.0-3.0-4.0-0.0","responseType":"finish","participantID":"vy3dql7ofymgnccmw3nvntujx4rlspug"},{"rt":6618,"responses":"{\"Q0\":5}","trial_type":"survey-likert","trial_index":8,"time_elapsed":58798,"internal_node_id":"0.0-3.0-4.0-0.1","responseType":"finish","participantID":"vy3dql7ofymgnccmw3nvntujx4rlspug"},{"rt":1722,"stimulus":"\u003cblockquote\u003e\n  \u003cp\u003eNow an anagram will be shown to you. \u003cbr\u003e\u003cbr\u003e Press 'v' to view the anagram.\u003c/p\u003e\n\u003c/blockquote\u003e","key_press":86,"trial_type":"html-keyboard-response","trial_index":9,"time_elapsed":60521,"internal_node_id":"0.0-3.1-0.1","responseType":"finish","participantID":"vy3dql7ofymgnccmw3nvntujx4rlspug"},{"rt":null,"stimulus":"\u003cb\u003e\u003ccenter\u003e\u003ch2\u003e\u003cp\u003eVLVOO\u003c/p\u003e\u003c/h2\u003e\u003c/center\u003e\u003c/b\u003e","key_press":null,"trial_type":"html-keyboard-response","trial_index":10,"time_elapsed":61023,"internal_node_id":"0.0-3.1-1.1","responseType":"finish","participantID":"vy3dql7ofymgnccmw3nvntujx4rlspug"},{"rt":8766.064999999799,"response":"0.4","stimulus":"\u003cp\u003eHow long do you think it will take you to solve this anagram?\u003c/p\u003e","trial_type":"html-slider-response","trial_index":11,"time_elapsed":69789,"internal_node_id":"0.0-3.1-2.1","responseType":"finish","participantID":"vy3dql7ofymgnccmw3nvntujx4rlspug"},{"rt":9251,"responses":"{\"Q0\":\"volvo\"}","trial_type":"survey-text","trial_index":12,"time_elapsed":79041,"internal_node_id":"0.0-3.1-3.1-0.1","responseType":"finish","participantID":"vy3dql7ofymgnccmw3nvntujx4rlspug"},{"rt":3207,"responses":"{\"Q0\":4}","trial_type":"survey-likert","trial_index":13,"time_elapsed":82250,"internal_node_id":"0.0-3.1-4.1-0.2","responseType":"finish","participantID":"vy3dql7ofymgnccmw3nvntujx4rlspug"},{"rt":3464,"responses":"{\"Q0\":1}","trial_type":"survey-likert","trial_index":14,"time_elapsed":85716,"internal_node_id":"0.0-3.1-4.1-0.3","responseType":"finish","participantID":"vy3dql7ofymgnccmw3nvntujx4rlspug"},{"rt":1480,"stimulus":"\u003cblockquote\u003e\n  \u003cp\u003eNow an anagram will be shown to you. \u003cbr\u003e\u003cbr\u003e Press 'v' to view the anagram.\u003c/p\u003e\n\u003c/blockquote\u003e","key_press":86,"trial_type":"html-keyboard-response","trial_index":15,"time_elapsed":87196,"internal_node_id":"0.0-3.2-0.2","responseType":"finish","participantID":"vy3dql7ofymgnccmw3nvntujx4rlspug"},{"rt":null,"stimulus":"\u003cb\u003e\u003ccenter\u003e\u003ch2\u003e\u003cp\u003eKHAOMCM\u003c/p\u003e\u003c/h2\u003e\u003c/center\u003e\u003c/b\u003e","key_press":null,"trial_type":"html-keyboard-response","trial_index":16,"time_elapsed":87697,"internal_node_id":"0.0-3.2-1.2","responseType":"finish","participantID":"vy3dql7ofymgnccmw3nvntujx4rlspug"},{"rt":6509.6749999993335,"response":"2.6","stimulus":"\u003cp\u003eHow long do you think it will take you to solve this anagram?\u003c/p\u003e","trial_type":"html-slider-response","trial_index":17,"time_elapsed":94208,"internal_node_id":"0.0-3.2-2.2","responseType":"finish","participantID":"vy3dql7ofymgnccmw3nvntujx4rlspug"},{"rt":17317,"responses":"{\"Q0\":\"hammock\"}","trial_type":"survey-text","trial_index":18,"time_elapsed":111525,"internal_node_id":"0.0-3.2-3.2-0.2","responseType":"finish","participantID":"vy3dql7ofymgnccmw3nvntujx4rlspug"},{"rt":2559,"responses":"{\"Q0\":5}","trial_type":"survey-likert","trial_index":19,"time_elapsed":114086,"internal_node_id":"0.0-3.2-4.2-0.4","responseType":"finish","participantID":"vy3dql7ofymgnccmw3nvntujx4rlspug"},{"rt":4754,"responses":"{\"Q0\":4}","trial_type":"survey-likert","trial_index":20,"time_elapsed":118840,"internal_node_id":"0.0-3.2-4.2-0.5","responseType":"finish","participantID":"vy3dql7ofymgnccmw3nvntujx4rlspug"}],"__v":0}
{"_id":{"$oid":"5d49c4466f29f700043efde3"},"data":{"responseType":"start","participantID":"jaluo9g8qlw71ngy9ahbu2qjbcnb9lkk"},"__v":0}
{"_id":{"$oid":"5d49c4726f29f700043efde4"},"data":{"responseType":"start","participantID":"yl2altayprynt094odv2wdbggkj08kbe"},"__v":0}
{"_id":{"$oid":"5d49c48d6f29f700043efde5"},"data":{"responseType":"start","participantID":"4jj2rjb67mvebxapd1e3e7pewq3na8xa"},"__v":0}
{"_id":{"$oid":"5d49c4926f29f700043efde6"},"data":[{"rt":5185,"responses":"{\"Q0\":\" I consent to participate\"}","trial_type":"survey-multi-choice","trial_index":0,"time_elapsed":5193,"internal_node_id":"0.0-0.0","responseType":"finish","participantID":"sw4oxpb47opv663za7wrcjt1d4v4cpp7"},{"trial_type":"call-function","trial_index":1,"time_elapsed":5198,"internal_node_id":"0.0-1.0","responseType":"finish","participantID":"sw4oxpb47opv663za7wrcjt1d4v4cpp7"},{"view_history":"[{\"page_index\":0,\"viewing_time\":8073},{\"page_index\":1,\"viewing_time\":11457}]","rt":19531,"trial_type":"instructions","trial_index":2,"time_elapsed":24729,"internal_node_id":"0.0-2.0","responseType":"finish","participantID":"sw4oxpb47opv663za7wrcjt1d4v4cpp7"},{"rt":2806,"stimulus":"\u003cblockquote\u003e\n  \u003cp\u003eNow an anagram will be shown to you. \u003cbr\u003e\u003cbr\u003e Press 'v' to view the anagram.\u003c/p\u003e\n\u003c/blockquote\u003e","key_press":86,"trial_type":"html-keyboard-response","trial_index":3,"time_elapsed":27536,"internal_node_id":"0.0-3.0-0.0","responseType":"finish","participantID":"sw4oxpb47opv663za7wrcjt1d4v4cpp7"},{"rt":null,"stimulus":"\u003cb\u003e\u003ccenter\u003e\u003ch2\u003e\u003cp\u003eTEH\u003c/p\u003e\u003c/h2\u003e\u003c/center\u003e\u003c/b\u003e","key_press":null,"trial_type":"html-keyboard-response","trial_index":4,"time_elapsed":28038,"internal_node_id":"0.0-3.0-1.0","responseType":"finish","participantID":"sw4oxpb47opv663za7wrcjt1d4v4cpp7"},{"rt":5224.00000016205,"response":"0","stimulus":"\u003cp\u003eHow long do you think it will take you to solve this anagram?\u003c/p\u003e","trial_type":"html-slider-response","trial_index":5,"time_elapsed":33264,"internal_node_id":"0.0-3.0-2.0","responseType":"finish","participantID":"sw4oxpb47opv663za7wrcjt1d4v4cpp7"},{"rt":3126,"responses":"{\"Q0\":\"the\"}","trial_type":"survey-text","trial_index":6,"time_elapsed":36392,"internal_node_id":"0.0-3.0-3.0-0.0","responseType":"finish","participantID":"sw4oxpb47opv663za7wrcjt1d4v4cpp7"},{"rt":2814,"responses":"{\"Q0\":6}","trial_type":"survey-likert","trial_index":7,"time_elapsed":39209,"internal_node_id":"0.0-3.0-4.0-0.0","responseType":"finish","participantID":"sw4oxpb47opv663za7wrcjt1d4v4cpp7"},{"rt":8846,"responses":"{\"Q0\":0}","trial_type":"survey-likert","trial_index":8,"time_elapsed":48056,"internal_node_id":"0.0-3.0-4.0-0.1","responseType":"finish","participantID":"sw4oxpb47opv663za7wrcjt1d4v4cpp7"},{"rt":2109,"stimulus":"\u003cblockquote\u003e\n  \u003cp\u003eNow an anagram will be shown to you. \u003cbr\u003e\u003cbr\u003e Press 'v' to view the anagram.\u003c/p\u003e\n\u003c/blockquote\u003e","key_press":86,"trial_type":"html-keyboard-response","trial_index":9,"time_elapsed":50166,"internal_node_id":"0.0-3.1-0.1","responseType":"finish","participantID":"sw4oxpb47opv663za7wrcjt1d4v4cpp7"},{"rt":null,"stimulus":"\u003cb\u003e\u003ccenter\u003e\u003ch2\u003e\u003cp\u003eVLVOO\u003c/p\u003e\u003c/h2\u003e\u003c/center\u003e\u003c/b\u003e","key_press":null,"trial_type":"html-keyboard-response","trial_index":10,"time_elapsed":50667,"internal_node_id":"0.0-3.1-1.1","responseType":"finish","participantID":"sw4oxpb47opv663za7wrcjt1d4v4cpp7"},{"rt":4882.999999914318,"response":"3.3","stimulus":"\u003cp\u003eHow long do you think it will take you to solve this anagram?\u003c/p\u003e","trial_type":"html-slider-response","trial_index":11,"time_elapsed":55552,"internal_node_id":"0.0-3.1-2.1","responseType":"finish","participantID":"sw4oxpb47opv663za7wrcjt1d4v4cpp7"},{"rt":42302,"responses":"{\"Q0\":\"\"}","trial_type":"survey-text","trial_index":12,"time_elapsed":97855,"internal_node_id":"0.0-3.1-3.1-0.1","responseType":"finish","participantID":"sw4oxpb47opv663za7wrcjt1d4v4cpp7"},{"rt":32756,"responses":"{\"Q0\":\"NEXT\"}","trial_type":"survey-text","trial_index":13,"time_elapsed":133577,"internal_node_id":"0.0-3.1-3.2-0.2","responseType":"finish","participantID":"sw4oxpb47opv663za7wrcjt1d4v4cpp7"},{"rt":4155,"responses":"{\"Q0\":1}","trial_type":"survey-likert","trial_index":14,"time_elapsed":137734,"internal_node_id":"0.0-3.1-4.1-0.2","responseType":"finish","participantID":"sw4oxpb47opv663za7wrcjt1d4v4cpp7"},{"rt":2975,"responses":"{\"Q0\":0}","trial_type":"survey-likert","trial_index":15,"time_elapsed":140712,"internal_node_id":"0.0-3.1-4.1-0.3","responseType":"finish","participantID":"sw4oxpb47opv663za7wrcjt1d4v4cpp7"},{"rt":2442,"stimulus":"\u003cblockquote\u003e\n  \u003cp\u003eNow an anagram will be shown to you. \u003cbr\u003e\u003cbr\u003e Press 'v' to view the anagram.\u003c/p\u003e\n\u003c/blockquote\u003e","key_press":86,"trial_type":"html-keyboard-response","trial_index":16,"time_elapsed":143155,"internal_node_id":"0.0-3.2-0.2","responseType":"finish","participantID":"sw4oxpb47opv663za7wrcjt1d4v4cpp7"},{"rt":null,"stimulus":"\u003cb\u003e\u003ccenter\u003e\u003ch2\u003e\u003cp\u003eKHAOMCM\u003c/p\u003e\u003c/h2\u003e\u003c/center\u003e\u003c/b\u003e","key_press":null,"trial_type":"html-keyboard-response","trial_index":17,"time_elapsed":143684,"internal_node_id":"0.0-3.2-1.2","responseType":"finish","participantID":"sw4oxpb47opv663za7wrcjt1d4v4cpp7"},{"rt":3919.999999925494,"response":"5.7","stimulus":"\u003cp\u003eHow long do you think it will take you to solve this anagram?\u003c/p\u003e","trial_type":"html-slider-response","trial_index":18,"time_elapsed":147608,"internal_node_id":"0.0-3.2-2.2","responseType":"finish","participantID":"sw4oxpb47opv663za7wrcjt1d4v4cpp7"},{"rt":164558,"responses":"{\"Q0\":\"hammock\"}","trial_type":"survey-text","trial_index":19,"time_elapsed":312167,"internal_node_id":"0.0-3.2-3.3-0.3","responseType":"finish","participantID":"sw4oxpb47opv663za7wrcjt1d4v4cpp7"},{"rt":3751,"responses":"{\"Q0\":2}","trial_type":"survey-likert","trial_index":20,"time_elapsed":315921,"internal_node_id":"0.0-3.2-4.2-0.4","responseType":"finish","participantID":"sw4oxpb47opv663za7wrcjt1d4v4cpp7"},{"rt":3990,"responses":"{\"Q0\":6}","trial_type":"survey-likert","trial_index":21,"time_elapsed":319913,"internal_node_id":"0.0-3.2-4.2-0.5","responseType":"finish","participantID":"sw4oxpb47opv663za7wrcjt1d4v4cpp7"}],"__v":0}
{"_id":{"$oid":"5d49c4986f29f700043efde7"},"data":[{"rt":10735,"responses":"{\"Q0\":\" I consent to participate\"}","trial_type":"survey-multi-choice","trial_index":0,"time_elapsed":10740,"internal_node_id":"0.0-0.0","responseType":"finish","participantID":"jaluo9g8qlw71ngy9ahbu2qjbcnb9lkk"},{"trial_type":"call-function","trial_index":1,"time_elapsed":10747,"internal_node_id":"0.0-1.0","responseType":"finish","participantID":"jaluo9g8qlw71ngy9ahbu2qjbcnb9lkk"},{"view_history":"[{\"page_index\":0,\"viewing_time\":6474},{\"page_index\":1,\"viewing_time\":9429}]","rt":15904,"trial_type":"instructions","trial_index":2,"time_elapsed":26651,"internal_node_id":"0.0-2.0","responseType":"finish","participantID":"jaluo9g8qlw71ngy9ahbu2qjbcnb9lkk"},{"rt":3658,"stimulus":"\u003cblockquote\u003e\n  \u003cp\u003eNow an anagram will be shown to you. \u003cbr\u003e\u003cbr\u003e Press 'v' to view the anagram.\u003c/p\u003e\n\u003c/blockquote\u003e","key_press":86,"trial_type":"html-keyboard-response","trial_index":3,"time_elapsed":30311,"internal_node_id":"0.0-3.0-0.0","responseType":"finish","participantID":"jaluo9g8qlw71ngy9ahbu2qjbcnb9lkk"},{"rt":null,"stimulus":"\u003cb\u003e\u003ccenter\u003e\u003ch2\u003e\u003cp\u003eTEH\u003c/p\u003e\u003c/h2\u003e\u003c/center\u003e\u003c/b\u003e","key_press":null,"trial_type":"html-keyboard-response","trial_index":4,"time_elapsed":30817,"internal_node_id":"0.0-3.0-1.0","responseType":"finish","participantID":"jaluo9g8qlw71ngy9ahbu2qjbcnb9lkk"},{"rt":4274.060000025202,"response":"0.2","stimulus":"\u003cp\u003eHow long do you think it will take you to solve this anagram?\u003c/p\u003e","trial_type":"html-slider-response","trial_index":5,"time_elapsed":35092,"internal_node_id":"0.0-3.0-2.0","responseType":"finish","participantID":"jaluo9g8qlw71ngy9ahbu2qjbcnb9lkk"},{"rt":3253,"responses":"{\"Q0\":\"the\"}","trial_type":"survey-text","trial_index":6,"time_elapsed":38348,"internal_node_id":"0.0-3.0-3.0-0.0","responseType":"finish","participantID":"jaluo9g8qlw71ngy9ahbu2qjbcnb9lkk"},{"rt":4845,"responses":"{\"Q0\":3}","trial_type":"survey-likert","trial_index":7,"time_elapsed":43194,"internal_node_id":"0.0-3.0-4.0-0.0","responseType":"finish","participantID":"jaluo9g8qlw71ngy9ahbu2qjbcnb9lkk"},{"rt":8188,"responses":"{\"Q0\":0}","trial_type":"survey-likert","trial_index":8,"time_elapsed":51387,"internal_node_id":"0.0-3.0-4.0-0.1","responseType":"finish","participantID":"jaluo9g8qlw71ngy9ahbu2qjbcnb9lkk"},{"rt":1553,"stimulus":"\u003cblockquote\u003e\n  \u003cp\u003eNow an anagram will be shown to you. \u003cbr\u003e\u003cbr\u003e Press 'v' to view the anagram.\u003c/p\u003e\n\u003c/blockquote\u003e","key_press":86,"trial_type":"html-keyboard-response","trial_index":9,"time_elapsed":52943,"internal_node_id":"0.0-3.1-0.1","responseType":"finish","participantID":"jaluo9g8qlw71ngy9ahbu2qjbcnb9lkk"},{"rt":null,"stimulus":"\u003cb\u003e\u003ccenter\u003e\u003ch2\u003e\u003cp\u003eVLVOO\u003c/p\u003e\u003c/h2\u003e\u003c/center\u003e\u003c/b\u003e","key_press":null,"trial_type":"html-keyboard-response","trial_index":10,"time_elapsed":53445,"internal_node_id":"0.0-3.1-1.1","responseType":"finish","participantID":"jaluo9g8qlw71ngy9ahbu2qjbcnb9lkk"},{"rt":6151.075000001583,"response":"0.7","stimulus":"\u003cp\u003eHow long do you think it will take you to solve this anagram?\u003c/p\u003e","trial_type":"html-slider-response","trial_index":11,"time_elapsed":59598,"internal_node_id":"0.0-3.1-2.1","responseType":"finish","participantID":"jaluo9g8qlw71ngy9ahbu2qjbcnb9lkk"},{"rt":5607,"responses":"{\"Q0\":\"volvo\"}","trial_type":"survey-text","trial_index":12,"time_elapsed":65206,"internal_node_id":"0.0-3.1-3.1-0.1","responseType":"finish","participantID":"jaluo9g8qlw71ngy9ahbu2qjbcnb9lkk"},{"rt":2456,"responses":"{\"Q0\":3}","trial_type":"survey-likert","trial_index":13,"time_elapsed":67665,"internal_node_id":"0.0-3.1-4.1-0.2","responseType":"finish","participantID":"jaluo9g8qlw71ngy9ahbu2qjbcnb9lkk"},{"rt":3739,"responses":"{\"Q0\":1}","trial_type":"survey-likert","trial_index":14,"time_elapsed":71408,"internal_node_id":"0.0-3.1-4.1-0.3","responseType":"finish","participantID":"jaluo9g8qlw71ngy9ahbu2qjbcnb9lkk"},{"rt":1214,"stimulus":"\u003cblockquote\u003e\n  \u003cp\u003eNow an anagram will be shown to you. \u003cbr\u003e\u003cbr\u003e Press 'v' to view the anagram.\u003c/p\u003e\n\u003c/blockquote\u003e","key_press":86,"trial_type":"html-keyboard-response","trial_index":15,"time_elapsed":72625,"internal_node_id":"0.0-3.2-0.2","responseType":"finish","participantID":"jaluo9g8qlw71ngy9ahbu2qjbcnb9lkk"},{"rt":null,"stimulus":"\u003cb\u003e\u003ccenter\u003e\u003ch2\u003e\u003cp\u003eKHAOMCM\u003c/p\u003e\u003c/h2\u003e\u003c/center\u003e\u003c/b\u003e","key_press":null,"trial_type":"html-keyboard-response","trial_index":16,"time_elapsed":73127,"internal_node_id":"0.0-3.2-1.2","responseType":"finish","participantID":"jaluo9g8qlw71ngy9ahbu2qjbcnb9lkk"},{"rt":6038.769999984652,"response":"3.1","stimulus":"\u003cp\u003eHow long do you think it will take you to solve this anagram?\u003c/p\u003e","trial_type":"html-slider-response","trial_index":17,"time_elapsed":79166,"internal_node_id":"0.0-3.2-2.2","responseType":"finish","participantID":"jaluo9g8qlw71ngy9ahbu2qjbcnb9lkk"},{"rt":9147,"responses":"{\"Q0\":\"hammock\"}","trial_type":"survey-text","trial_index":18,"time_elapsed":88314,"internal_node_id":"0.0-3.2-3.2-0.2","responseType":"finish","participantID":"jaluo9g8qlw71ngy9ahbu2qjbcnb9lkk"},{"rt":1736,"responses":"{\"Q0\":3}","trial_type":"survey-likert","trial_index":19,"time_elapsed":90052,"internal_node_id":"0.0-3.2-4.2-0.4","responseType":"finish","participantID":"jaluo9g8qlw71ngy9ahbu2qjbcnb9lkk"},{"rt":2185,"responses":"{\"Q0\":1}","trial_type":"survey-likert","trial_index":20,"time_elapsed":92242,"internal_node_id":"0.0-3.2-4.2-0.5","responseType":"finish","participantID":"jaluo9g8qlw71ngy9ahbu2qjbcnb9lkk"}],"__v":0}
{"_id":{"$oid":"5d49c49c6f29f700043efde8"},"data":{"responseType":"start","participantID":"9vfz87mn5s19fgd11p1vnx4og36e4od7"},"__v":0}
{"_id":{"$oid":"5d49c4d16f29f700043efde9"},"data":{"responseType":"start","participantID":"j8ctshp0y1g9zzj4q73njfjh95793y2z"},"__v":0}
{"_id":{"$oid":"5d49c4d56f29f700043efdea"},"data":[{"rt":6866,"responses":"{\"Q0\":\" I consent to participate\"}","trial_type":"survey-multi-choice","trial_index":0,"time_elapsed":6878,"internal_node_id":"0.0-0.0","responseType":"finish","participantID":"4jj2rjb67mvebxapd1e3e7pewq3na8xa"},{"trial_type":"call-function","trial_index":1,"time_elapsed":6889,"internal_node_id":"0.0-1.0","responseType":"finish","participantID":"4jj2rjb67mvebxapd1e3e7pewq3na8xa"},{"view_history":"[{\"page_index\":0,\"viewing_time\":5327},{\"page_index\":1,\"viewing_time\":6633}]","rt":11962,"trial_type":"instructions","trial_index":2,"time_elapsed":18853,"internal_node_id":"0.0-2.0","responseType":"finish","participantID":"4jj2rjb67mvebxapd1e3e7pewq3na8xa"},{"rt":2753,"stimulus":"\u003cblockquote\u003e\n  \u003cp\u003eNow an anagram will be shown to you. \u003cbr\u003e\u003cbr\u003e Press 'v' to view the anagram.\u003c/p\u003e\n\u003c/blockquote\u003e","key_press":86,"trial_type":"html-keyboard-response","trial_index":3,"time_elapsed":21608,"internal_node_id":"0.0-3.0-0.0","responseType":"finish","participantID":"4jj2rjb67mvebxapd1e3e7pewq3na8xa"},{"rt":null,"stimulus":"\u003cb\u003e\u003ccenter\u003e\u003ch2\u003e\u003cp\u003eTEH\u003c/p\u003e\u003c/h2\u003e\u003c/center\u003e\u003c/b\u003e","key_press":null,"trial_type":"html-keyboard-response","trial_index":4,"time_elapsed":22114,"internal_node_id":"0.0-3.0-1.0","responseType":"finish","participantID":"4jj2rjb67mvebxapd1e3e7pewq3na8xa"},{"rt":3494.1949999774806,"response":"0","stimulus":"\u003cp\u003eHow long do you think it will take you to solve this anagram?\u003c/p\u003e","trial_type":"html-slider-response","trial_index":5,"time_elapsed":25615,"internal_node_id":"0.0-3.0-2.0","responseType":"finish","participantID":"4jj2rjb67mvebxapd1e3e7pewq3na8xa"},{"rt":3331,"responses":"{\"Q0\":\"the\"}","trial_type":"survey-text","trial_index":6,"time_elapsed":28957,"internal_node_id":"0.0-3.0-3.0-0.0","responseType":"finish","participantID":"4jj2rjb67mvebxapd1e3e7pewq3na8xa"},{"rt":4843,"responses":"{\"Q0\":6}","trial_type":"survey-likert","trial_index":7,"time_elapsed":33806,"internal_node_id":"0.0-3.0-4.0-0.0","responseType":"finish","participantID":"4jj2rjb67mvebxapd1e3e7pewq3na8xa"},{"rt":9781,"responses":"{\"Q0\":5}","trial_type":"survey-likert","trial_index":8,"time_elapsed":43592,"internal_node_id":"0.0-3.0-4.0-0.1","responseType":"finish","participantID":"4jj2rjb67mvebxapd1e3e7pewq3na8xa"},{"rt":2388,"stimulus":"\u003cblockquote\u003e\n  \u003cp\u003eNow an anagram will be shown to you. \u003cbr\u003e\u003cbr\u003e Press 'v' to view the anagram.\u003c/p\u003e\n\u003c/blockquote\u003e","key_press":86,"trial_type":"html-keyboard-response","trial_index":9,"time_elapsed":45983,"internal_node_id":"0.0-3.1-0.1","responseType":"finish","participantID":"4jj2rjb67mvebxapd1e3e7pewq3na8xa"},{"rt":null,"stimulus":"\u003cb\u003e\u003ccenter\u003e\u003ch2\u003e\u003cp\u003eVLVOO\u003c/p\u003e\u003c/h2\u003e\u003c/center\u003e\u003c/b\u003e","key_press":null,"trial_type":"html-keyboard-response","trial_index":10,"time_elapsed":46486,"internal_node_id":"0.0-3.1-1.1","responseType":"finish","participantID":"4jj2rjb67mvebxapd1e3e7pewq3na8xa"},{"rt":3355.0300000351854,"response":"0","stimulus":"\u003cp\u003eHow long do you think it will take you to solve this anagram?\u003c/p\u003e","trial_type":"html-slider-response","trial_index":11,"time_elapsed":49844,"internal_node_id":"0.0-3.1-2.1","responseType":"finish","participantID":"4jj2rjb67mvebxapd1e3e7pewq3na8xa"},{"rt":5133,"responses":"{\"Q0\":\"volvo\"}","trial_type":"survey-text","trial_index":12,"time_elapsed":54980,"internal_node_id":"0.0-3.1-3.1-0.1","responseType":"finish","participantID":"4jj2rjb67mvebxapd1e3e7pewq3na8xa"},{"rt":2087,"responses":"{\"Q0\":6}","trial_type":"survey-likert","trial_index":13,"time_elapsed":57071,"internal_node_id":"0.0-3.1-4.1-0.2","responseType":"finish","participantID":"4jj2rjb67mvebxapd1e3e7pewq3na8xa"},{"rt":2132,"responses":"{\"Q0\":5}","trial_type":"survey-likert","trial_index":14,"time_elapsed":59208,"internal_node_id":"0.0-3.1-4.1-0.3","responseType":"finish","participantID":"4jj2rjb67mvebxapd1e3e7pewq3na8xa"},{"rt":789,"stimulus":"\u003cblockquote\u003e\n  \u003cp\u003eNow an anagram will be shown to you. \u003cbr\u003e\u003cbr\u003e Press 'v' to view the anagram.\u003c/p\u003e\n\u003c/blockquote\u003e","key_press":86,"trial_type":"html-keyboard-response","trial_index":15,"time_elapsed":60000,"internal_node_id":"0.0-3.2-0.2","responseType":"finish","participantID":"4jj2rjb67mvebxapd1e3e7pewq3na8xa"},{"rt":null,"stimulus":"\u003cb\u003e\u003ccenter\u003e\u003ch2\u003e\u003cp\u003eKHAOMCM\u003c/p\u003e\u003c/h2\u003e\u003c/center\u003e\u003c/b\u003e","key_press":null,"trial_type":"html-keyboard-response","trial_index":16,"time_elapsed":60503,"internal_node_id":"0.0-3.2-1.2","responseType":"finish","participantID":"4jj2rjb67mvebxapd1e3e7pewq3na8xa"},{"rt":4254.075000004377,"response":"0.5","stimulus":"\u003cp\u003eHow long do you think it will take you to solve this anagram?\u003c/p\u003e","trial_type":"html-slider-response","trial_index":17,"time_elapsed":64759,"internal_node_id":"0.0-3.2-2.2","responseType":"finish","participantID":"4jj2rjb67mvebxapd1e3e7pewq3na8xa"},{"rt":9268,"responses":"{\"Q0\":\"hammock\"}","trial_type":"survey-text","trial_index":18,"time_elapsed":74029,"internal_node_id":"0.0-3.2-3.2-0.2","responseType":"finish","participantID":"4jj2rjb67mvebxapd1e3e7pewq3na8xa"},{"rt":2215,"responses":"{\"Q0\":5}","trial_type":"survey-likert","trial_index":19,"time_elapsed":76248,"internal_node_id":"0.0-3.2-4.2-0.4","responseType":"finish","participantID":"4jj2rjb67mvebxapd1e3e7pewq3na8xa"},{"rt":2310,"responses":"{\"Q0\":6}","trial_type":"survey-likert","trial_index":20,"time_elapsed":78562,"internal_node_id":"0.0-3.2-4.2-0.5","responseType":"finish","participantID":"4jj2rjb67mvebxapd1e3e7pewq3na8xa"}],"__v":0}
{"_id":{"$oid":"5d49c4f26f29f700043efdeb"},"data":{"responseType":"start","participantID":"ad65awny8vcff2hgxn7c7pycr1yuag5x"},"__v":0}
{"_id":{"$oid":"5d49c4f46f29f700043efdec"},"data":{"responseType":"start","participantID":"5gynqqy3w91uumk23996maguemg9z31j"},"__v":0}
{"_id":{"$oid":"5d49c5096f29f700043efded"},"data":{"responseType":"start","participantID":"1tr69p1zzxl3n8geblu4gnzrkgyeoblp"},"__v":0}
{"_id":{"$oid":"5d49c50e6f29f700043efdee"},"data":{"responseType":"start","participantID":"t65mg9k8154lx1jnbs4af4ydox89cjnd"},"__v":0}
{"_id":{"$oid":"5d49c52d6f29f700043efdef"},"data":{"responseType":"start","participantID":"7td7ok9v4yorx71bmm3mzxhal7dyfkpn"},"__v":0}
{"_id":{"$oid":"5d49c5366f29f700043efdf0"},"data":[{"rt":9602,"responses":"{\"Q0\":\" I consent to participate\"}","trial_type":"survey-multi-choice","trial_index":0,"time_elapsed":9608,"internal_node_id":"0.0-0.0","responseType":"finish","participantID":"9vfz87mn5s19fgd11p1vnx4og36e4od7"},{"trial_type":"call-function","trial_index":1,"time_elapsed":9612,"internal_node_id":"0.0-1.0","responseType":"finish","participantID":"9vfz87mn5s19fgd11p1vnx4og36e4od7"},{"view_history":"[{\"page_index\":0,\"viewing_time\":17844},{\"page_index\":1,\"viewing_time\":10986}]","rt":28831,"trial_type":"instructions","trial_index":2,"time_elapsed":38443,"internal_node_id":"0.0-2.0","responseType":"finish","participantID":"9vfz87mn5s19fgd11p1vnx4og36e4od7"},{"rt":5563,"stimulus":"\u003cblockquote\u003e\n  \u003cp\u003eNow an anagram will be shown to you. \u003cbr\u003e\u003cbr\u003e Press 'v' to view the anagram.\u003c/p\u003e\n\u003c/blockquote\u003e","key_press":86,"trial_type":"html-keyboard-response","trial_index":3,"time_elapsed":44008,"internal_node_id":"0.0-3.0-0.0","responseType":"finish","participantID":"9vfz87mn5s19fgd11p1vnx4og36e4od7"},{"rt":null,"stimulus":"\u003cb\u003e\u003ccenter\u003e\u003ch2\u003e\u003cp\u003eTEH\u003c/p\u003e\u003c/h2\u003e\u003c/center\u003e\u003c/b\u003e","key_press":null,"trial_type":"html-keyboard-response","trial_index":4,"time_elapsed":44511,"internal_node_id":"0.0-3.0-1.0","responseType":"finish","participantID":"9vfz87mn5s19fgd11p1vnx4og36e4od7"},{"rt":5854.214999999385,"response":"0","stimulus":"\u003cp\u003eHow long do you think it will take you to solve this anagram?\u003c/p\u003e","trial_type":"html-slider-response","trial_index":5,"time_elapsed":50369,"internal_node_id":"0.0-3.0-2.0","responseType":"finish","participantID":"9vfz87mn5s19fgd11p1vnx4og36e4od7"},{"rt":3685,"responses":"{\"Q0\":\"the\"}","trial_type":"survey-text","trial_index":6,"time_elapsed":54056,"internal_node_id":"0.0-3.0-3.0-0.0","responseType":"finish","participantID":"9vfz87mn5s19fgd11p1vnx4og36e4od7"},{"rt":4971,"responses":"{\"Q0\":3}","trial_type":"survey-likert","trial_index":7,"time_elapsed":59029,"internal_node_id":"0.0-3.0-4.0-0.0","responseType":"finish","participantID":"9vfz87mn5s19fgd11p1vnx4og36e4od7"},{"rt":9115,"responses":"{\"Q0\":0}","trial_type":"survey-likert","trial_index":8,"time_elapsed":68149,"internal_node_id":"0.0-3.0-4.0-0.1","responseType":"finish","participantID":"9vfz87mn5s19fgd11p1vnx4og36e4od7"},{"rt":4526,"stimulus":"\u003cblockquote\u003e\n  \u003cp\u003eNow an anagram will be shown to you. \u003cbr\u003e\u003cbr\u003e Press 'v' to view the anagram.\u003c/p\u003e\n\u003c/blockquote\u003e","key_press":86,"trial_type":"html-keyboard-response","trial_index":9,"time_elapsed":72676,"internal_node_id":"0.0-3.1-0.1","responseType":"finish","participantID":"9vfz87mn5s19fgd11p1vnx4og36e4od7"},{"rt":null,"stimulus":"\u003cb\u003e\u003ccenter\u003e\u003ch2\u003e\u003cp\u003eVLVOO\u003c/p\u003e\u003c/h2\u003e\u003c/center\u003e\u003c/b\u003e","key_press":null,"trial_type":"html-keyboard-response","trial_index":10,"time_elapsed":73178,"internal_node_id":"0.0-3.1-1.1","responseType":"finish","participantID":"9vfz87mn5s19fgd11p1vnx4og36e4od7"},{"rt":6730.104999995092,"response":"0.5","stimulus":"\u003cp\u003eHow long do you think it will take you to solve this anagram?\u003c/p\u003e","trial_type":"html-slider-response","trial_index":11,"time_elapsed":79909,"internal_node_id":"0.0-3.1-2.1","responseType":"finish","participantID":"9vfz87mn5s19fgd11p1vnx4og36e4od7"},{"rt":5695,"responses":"{\"Q0\":\"volvo\"}","trial_type":"survey-text","trial_index":12,"time_elapsed":85605,"internal_node_id":"0.0-3.1-3.1-0.1","responseType":"finish","participantID":"9vfz87mn5s19fgd11p1vnx4og36e4od7"},{"rt":5296,"responses":"{\"Q0\":4}","trial_type":"survey-likert","trial_index":13,"time_elapsed":90902,"internal_node_id":"0.0-3.1-4.1-0.2","responseType":"finish","participantID":"9vfz87mn5s19fgd11p1vnx4og36e4od7"},{"rt":3800,"responses":"{\"Q0\":2}","trial_type":"survey-likert","trial_index":14,"time_elapsed":94704,"internal_node_id":"0.0-3.1-4.1-0.3","responseType":"finish","participantID":"9vfz87mn5s19fgd11p1vnx4og36e4od7"},{"rt":2374,"stimulus":"\u003cblockquote\u003e\n  \u003cp\u003eNow an anagram will be shown to you. \u003cbr\u003e\u003cbr\u003e Press 'v' to view the anagram.\u003c/p\u003e\n\u003c/blockquote\u003e","key_press":86,"trial_type":"html-keyboard-response","trial_index":15,"time_elapsed":97078,"internal_node_id":"0.0-3.2-0.2","responseType":"finish","participantID":"9vfz87mn5s19fgd11p1vnx4og36e4od7"},{"rt":null,"stimulus":"\u003cb\u003e\u003ccenter\u003e\u003ch2\u003e\u003cp\u003eKHAOMCM\u003c/p\u003e\u003c/h2\u003e\u003c/center\u003e\u003c/b\u003e","key_press":null,"trial_type":"html-keyboard-response","trial_index":16,"time_elapsed":97579,"internal_node_id":"0.0-3.2-1.2","responseType":"finish","participantID":"9vfz87mn5s19fgd11p1vnx4og36e4od7"},{"rt":5202.115000000049,"response":"6","stimulus":"\u003cp\u003eHow long do you think it will take you to solve this anagram?\u003c/p\u003e","trial_type":"html-slider-response","trial_index":17,"time_elapsed":102783,"internal_node_id":"0.0-3.2-2.2","responseType":"finish","participantID":"9vfz87mn5s19fgd11p1vnx4og36e4od7"},{"rt":49129,"responses":"{\"Q0\":\"Hammock\"}","trial_type":"survey-text","trial_index":18,"time_elapsed":151912,"internal_node_id":"0.0-3.2-3.2-0.2","responseType":"finish","participantID":"9vfz87mn5s19fgd11p1vnx4og36e4od7"},{"rt":4809,"responses":"{\"Q0\":3}","trial_type":"survey-likert","trial_index":19,"time_elapsed":156722,"internal_node_id":"0.0-3.2-4.2-0.4","responseType":"finish","participantID":"9vfz87mn5s19fgd11p1vnx4og36e4od7"},{"rt":6005,"responses":"{\"Q0\":4}","trial_type":"survey-likert","trial_index":20,"time_elapsed":162729,"internal_node_id":"0.0-3.2-4.2-0.5","responseType":"finish","participantID":"9vfz87mn5s19fgd11p1vnx4og36e4od7"}],"__v":0}
{"_id":{"$oid":"5d49c54c6f29f700043efdf1"},"data":[{"rt":5230,"responses":"{\"Q0\":\" I consent to participate\"}","trial_type":"survey-multi-choice","trial_index":0,"time_elapsed":5234,"internal_node_id":"0.0-0.0","responseType":"finish","participantID":"1tr69p1zzxl3n8geblu4gnzrkgyeoblp"},{"trial_type":"call-function","trial_index":1,"time_elapsed":5238,"internal_node_id":"0.0-1.0","responseType":"finish","participantID":"1tr69p1zzxl3n8geblu4gnzrkgyeoblp"},{"view_history":"[{\"page_index\":0,\"viewing_time\":5823},{\"page_index\":1,\"viewing_time\":4513}]","rt":10337,"trial_type":"instructions","trial_index":2,"time_elapsed":15575,"internal_node_id":"0.0-2.0","responseType":"finish","participantID":"1tr69p1zzxl3n8geblu4gnzrkgyeoblp"},{"rt":2345,"stimulus":"\u003cblockquote\u003e\n  \u003cp\u003eNow an anagram will be shown to you. \u003cbr\u003e\u003cbr\u003e Press 'v' to view the anagram.\u003c/p\u003e\n\u003c/blockquote\u003e","key_press":86,"trial_type":"html-keyboard-response","trial_index":3,"time_elapsed":17921,"internal_node_id":"0.0-3.0-0.0","responseType":"finish","participantID":"1tr69p1zzxl3n8geblu4gnzrkgyeoblp"},{"rt":null,"stimulus":"\u003cb\u003e\u003ccenter\u003e\u003ch2\u003e\u003cp\u003eTEH\u003c/p\u003e\u003c/h2\u003e\u003c/center\u003e\u003c/b\u003e","key_press":null,"trial_type":"html-keyboard-response","trial_index":4,"time_elapsed":18427,"internal_node_id":"0.0-3.0-1.0","responseType":"finish","participantID":"1tr69p1zzxl3n8geblu4gnzrkgyeoblp"},{"rt":2685.2100000251085,"response":"0","stimulus":"\u003cp\u003eHow long do you think it will take you to solve this anagram?\u003c/p\u003e","trial_type":"html-slider-response","trial_index":5,"time_elapsed":21113,"internal_node_id":"0.0-3.0-2.0","responseType":"finish","participantID":"1tr69p1zzxl3n8geblu4gnzrkgyeoblp"},{"rt":2334,"responses":"{\"Q0\":\"the\"}","trial_type":"survey-text","trial_index":6,"time_elapsed":23449,"internal_node_id":"0.0-3.0-3.0-0.0","responseType":"finish","participantID":"1tr69p1zzxl3n8geblu4gnzrkgyeoblp"},{"rt":3707,"responses":"{\"Q0\":4}","trial_type":"survey-likert","trial_index":7,"time_elapsed":27158,"internal_node_id":"0.0-3.0-4.0-0.0","responseType":"finish","participantID":"1tr69p1zzxl3n8geblu4gnzrkgyeoblp"},{"rt":5542,"responses":"{\"Q0\":0}","trial_type":"survey-likert","trial_index":8,"time_elapsed":32702,"internal_node_id":"0.0-3.0-4.0-0.1","responseType":"finish","participantID":"1tr69p1zzxl3n8geblu4gnzrkgyeoblp"},{"rt":1393,"stimulus":"\u003cblockquote\u003e\n  \u003cp\u003eNow an anagram will be shown to you. \u003cbr\u003e\u003cbr\u003e Press 'v' to view the anagram.\u003c/p\u003e\n\u003c/blockquote\u003e","key_press":86,"trial_type":"html-keyboard-response","trial_index":9,"time_elapsed":34096,"internal_node_id":"0.0-3.1-0.1","responseType":"finish","participantID":"1tr69p1zzxl3n8geblu4gnzrkgyeoblp"},{"rt":null,"stimulus":"\u003cb\u003e\u003ccenter\u003e\u003ch2\u003e\u003cp\u003eVLVOO\u003c/p\u003e\u003c/h2\u003e\u003c/center\u003e\u003c/b\u003e","key_press":null,"trial_type":"html-keyboard-response","trial_index":10,"time_elapsed":34598,"internal_node_id":"0.0-3.1-1.1","responseType":"finish","participantID":"1tr69p1zzxl3n8geblu4gnzrkgyeoblp"},{"rt":5265.699999872595,"response":"3.1","stimulus":"\u003cp\u003eHow long do you think it will take you to solve this anagram?\u003c/p\u003e","trial_type":"html-slider-response","trial_index":11,"time_elapsed":39864,"internal_node_id":"0.0-3.1-2.1","responseType":"finish","participantID":"1tr69p1zzxl3n8geblu4gnzrkgyeoblp"},{"rt":10326,"responses":"{\"Q0\":\"volvo\"}","trial_type":"survey-text","trial_index":12,"time_elapsed":50191,"internal_node_id":"0.0-3.1-3.1-0.1","responseType":"finish","participantID":"1tr69p1zzxl3n8geblu4gnzrkgyeoblp"},{"rt":2894,"responses":"{\"Q0\":3}","trial_type":"survey-likert","trial_index":13,"time_elapsed":53086,"internal_node_id":"0.0-3.1-4.1-0.2","responseType":"finish","participantID":"1tr69p1zzxl3n8geblu4gnzrkgyeoblp"},{"rt":2338,"responses":"{\"Q0\":0}","trial_type":"survey-likert","trial_index":14,"time_elapsed":55426,"internal_node_id":"0.0-3.1-4.1-0.3","responseType":"finish","participantID":"1tr69p1zzxl3n8geblu4gnzrkgyeoblp"},{"rt":742,"stimulus":"\u003cblockquote\u003e\n  \u003cp\u003eNow an anagram will be shown to you. \u003cbr\u003e\u003cbr\u003e Press 'v' to view the anagram.\u003c/p\u003e\n\u003c/blockquote\u003e","key_press":86,"trial_type":"html-keyboard-response","trial_index":15,"time_elapsed":56168,"internal_node_id":"0.0-3.2-0.2","responseType":"finish","participantID":"1tr69p1zzxl3n8geblu4gnzrkgyeoblp"},{"rt":null,"stimulus":"\u003cb\u003e\u003ccenter\u003e\u003ch2\u003e\u003cp\u003eKHAOMCM\u003c/p\u003e\u003c/h2\u003e\u003c/center\u003e\u003c/b\u003e","key_press":null,"trial_type":"html-keyboard-response","trial_index":16,"time_elapsed":56670,"internal_node_id":"0.0-3.2-1.2","responseType":"finish","participantID":"1tr69p1zzxl3n8geblu4gnzrkgyeoblp"},{"rt":3576.5800001099706,"response":"3.5","stimulus":"\u003cp\u003eHow long do you think it will take you to solve this anagram?\u003c/p\u003e","trial_type":"html-slider-response","trial_index":17,"time_elapsed":60247,"internal_node_id":"0.0-3.2-2.2","responseType":"finish","participantID":"1tr69p1zzxl3n8geblu4gnzrkgyeoblp"},{"rt":5413,"responses":"{\"Q0\":\"NEXT\"}","trial_type":"survey-text","trial_index":18,"time_elapsed":65661,"internal_node_id":"0.0-3.2-3.2-0.2","responseType":"finish","participantID":"1tr69p1zzxl3n8geblu4gnzrkgyeoblp"},{"rt":2339,"responses":"{\"Q0\":3}","trial_type":"survey-likert","trial_index":19,"time_elapsed":68001,"internal_node_id":"0.0-3.2-4.2-0.4","responseType":"finish","participantID":"1tr69p1zzxl3n8geblu4gnzrkgyeoblp"},{"rt":3597,"responses":"{\"Q0\":0}","trial_type":"survey-likert","trial_index":20,"time_elapsed":71600,"internal_node_id":"0.0-3.2-4.2-0.5","responseType":"finish","participantID":"1tr69p1zzxl3n8geblu4gnzrkgyeoblp"}],"__v":0}
{"_id":{"$oid":"5d49c5546f29f700043efdf2"},"data":[{"rt":3953,"responses":"{\"Q0\":\" I consent to participate\"}","trial_type":"survey-multi-choice","trial_index":0,"time_elapsed":3962,"internal_node_id":"0.0-0.0","responseType":"finish","participantID":"5gynqqy3w91uumk23996maguemg9z31j"},{"trial_type":"call-function","trial_index":1,"time_elapsed":3968,"internal_node_id":"0.0-1.0","responseType":"finish","participantID":"5gynqqy3w91uumk23996maguemg9z31j"},{"view_history":"[{\"page_index\":0,\"viewing_time\":8281},{\"page_index\":1,\"viewing_time\":3428}]","rt":11709,"trial_type":"instructions","trial_index":2,"time_elapsed":15677,"internal_node_id":"0.0-2.0","responseType":"finish","participantID":"5gynqqy3w91uumk23996maguemg9z31j"},{"rt":2208,"stimulus":"\u003cblockquote\u003e\n  \u003cp\u003eNow an anagram will be shown to you. \u003cbr\u003e\u003cbr\u003e Press 'v' to view the anagram.\u003c/p\u003e\n\u003c/blockquote\u003e","key_press":86,"trial_type":"html-keyboard-response","trial_index":3,"time_elapsed":17888,"internal_node_id":"0.0-3.0-0.0","responseType":"finish","participantID":"5gynqqy3w91uumk23996maguemg9z31j"},{"rt":null,"stimulus":"\u003cb\u003e\u003ccenter\u003e\u003ch2\u003e\u003cp\u003eTEH\u003c/p\u003e\u003c/h2\u003e\u003c/center\u003e\u003c/b\u003e","key_press":null,"trial_type":"html-keyboard-response","trial_index":4,"time_elapsed":18393,"internal_node_id":"0.0-3.0-1.0","responseType":"finish","participantID":"5gynqqy3w91uumk23996maguemg9z31j"},{"rt":3551.900000000387,"response":"0","stimulus":"\u003cp\u003eHow long do you think it will take you to solve this anagram?\u003c/p\u003e","trial_type":"html-slider-response","trial_index":5,"time_elapsed":21948,"internal_node_id":"0.0-3.0-2.0","responseType":"finish","participantID":"5gynqqy3w91uumk23996maguemg9z31j"},{"rt":3292,"responses":"{\"Q0\":\"THE\"}","trial_type":"survey-text","trial_index":6,"time_elapsed":25248,"internal_node_id":"0.0-3.0-3.0-0.0","responseType":"finish","participantID":"5gynqqy3w91uumk23996maguemg9z31j"},{"rt":3246,"responses":"{\"Q0\":6}","trial_type":"survey-likert","trial_index":7,"time_elapsed":28497,"internal_node_id":"0.0-3.0-4.0-0.0","responseType":"finish","participantID":"5gynqqy3w91uumk23996maguemg9z31j"},{"rt":7440,"responses":"{\"Q0\":6}","trial_type":"survey-likert","trial_index":8,"time_elapsed":35940,"internal_node_id":"0.0-3.0-4.0-0.1","responseType":"finish","participantID":"5gynqqy3w91uumk23996maguemg9z31j"},{"rt":4164,"stimulus":"\u003cblockquote\u003e\n  \u003cp\u003eNow an anagram will be shown to you. \u003cbr\u003e\u003cbr\u003e Press 'v' to view the anagram.\u003c/p\u003e\n\u003c/blockquote\u003e","key_press":86,"trial_type":"html-keyboard-response","trial_index":9,"time_elapsed":40106,"internal_node_id":"0.0-3.1-0.1","responseType":"finish","participantID":"5gynqqy3w91uumk23996maguemg9z31j"},{"rt":null,"stimulus":"\u003cb\u003e\u003ccenter\u003e\u003ch2\u003e\u003cp\u003eVLVOO\u003c/p\u003e\u003c/h2\u003e\u003c/center\u003e\u003c/b\u003e","key_press":null,"trial_type":"html-keyboard-response","trial_index":10,"time_elapsed":40607,"internal_node_id":"0.0-3.1-1.1","responseType":"finish","participantID":"5gynqqy3w91uumk23996maguemg9z31j"},{"rt":4135.099999999511,"response":"0","stimulus":"\u003cp\u003eHow long do you think it will take you to solve this anagram?\u003c/p\u003e","trial_type":"html-slider-response","trial_index":11,"time_elapsed":44745,"internal_node_id":"0.0-3.1-2.1","responseType":"finish","participantID":"5gynqqy3w91uumk23996maguemg9z31j"},{"rt":6983,"responses":"{\"Q0\":\"VOLVO\"}","trial_type":"survey-text","trial_index":12,"time_elapsed":51729,"internal_node_id":"0.0-3.1-3.1-0.1","responseType":"finish","participantID":"5gynqqy3w91uumk23996maguemg9z31j"},{"rt":3348,"responses":"{\"Q0\":6}","trial_type":"survey-likert","trial_index":13,"time_elapsed":55079,"internal_node_id":"0.0-3.1-4.1-0.2","responseType":"finish","participantID":"5gynqqy3w91uumk23996maguemg9z31j"},{"rt":1796,"responses":"{\"Q0\":6}","trial_type":"survey-likert","trial_index":14,"time_elapsed":56877,"internal_node_id":"0.0-3.1-4.1-0.3","responseType":"finish","participantID":"5gynqqy3w91uumk23996maguemg9z31j"},{"rt":1404,"stimulus":"\u003cblockquote\u003e\n  \u003cp\u003eNow an anagram will be shown to you. \u003cbr\u003e\u003cbr\u003e Press 'v' to view the anagram.\u003c/p\u003e\n\u003c/blockquote\u003e","key_press":86,"trial_type":"html-keyboard-response","trial_index":15,"time_elapsed":58284,"internal_node_id":"0.0-3.2-0.2","responseType":"finish","participantID":"5gynqqy3w91uumk23996maguemg9z31j"},{"rt":null,"stimulus":"\u003cb\u003e\u003ccenter\u003e\u003ch2\u003e\u003cp\u003eKHAOMCM\u003c/p\u003e\u003c/h2\u003e\u003c/center\u003e\u003c/b\u003e","key_press":null,"trial_type":"html-keyboard-response","trial_index":16,"time_elapsed":58786,"internal_node_id":"0.0-3.2-1.2","responseType":"finish","participantID":"5gynqqy3w91uumk23996maguemg9z31j"},{"rt":7317.4999999992,"response":"2.1","stimulus":"\u003cp\u003eHow long do you think it will take you to solve this anagram?\u003c/p\u003e","trial_type":"html-slider-response","trial_index":17,"time_elapsed":66105,"internal_node_id":"0.0-3.2-2.2","responseType":"finish","participantID":"5gynqqy3w91uumk23996maguemg9z31j"},{"rt":28265,"responses":"{\"Q0\":\"NEXT\"}","trial_type":"survey-text","trial_index":18,"time_elapsed":94372,"internal_node_id":"0.0-3.2-3.2-0.2","responseType":"finish","participantID":"5gynqqy3w91uumk23996maguemg9z31j"},{"rt":2627,"responses":"{\"Q0\":3}","trial_type":"survey-likert","trial_index":19,"time_elapsed":97001,"internal_node_id":"0.0-3.2-4.2-0.4","responseType":"finish","participantID":"5gynqqy3w91uumk23996maguemg9z31j"},{"rt":3000,"responses":"{\"Q0\":0}","trial_type":"survey-likert","trial_index":20,"time_elapsed":100003,"internal_node_id":"0.0-3.2-4.2-0.5","responseType":"finish","participantID":"5gynqqy3w91uumk23996maguemg9z31j"}],"__v":0}
{"_id":{"$oid":"5d49c56e6f29f700043efdf3"},"data":[{"rt":8576,"responses":"{\"Q0\":\" I consent to participate\"}","trial_type":"survey-multi-choice","trial_index":0,"time_elapsed":8583,"internal_node_id":"0.0-0.0","responseType":"finish","participantID":"j8ctshp0y1g9zzj4q73njfjh95793y2z"},{"trial_type":"call-function","trial_index":1,"time_elapsed":8591,"internal_node_id":"0.0-1.0","responseType":"finish","participantID":"j8ctshp0y1g9zzj4q73njfjh95793y2z"},{"view_history":"[{\"page_index\":0,\"viewing_time\":9527},{\"page_index\":1,\"viewing_time\":10053}]","rt":19582,"trial_type":"instructions","trial_index":2,"time_elapsed":28174,"internal_node_id":"0.0-2.0","responseType":"finish","participantID":"j8ctshp0y1g9zzj4q73njfjh95793y2z"},{"rt":2619,"stimulus":"\u003cblockquote\u003e\n  \u003cp\u003eNow an anagram will be shown to you. \u003cbr\u003e\u003cbr\u003e Press 'v' to view the anagram.\u003c/p\u003e\n\u003c/blockquote\u003e","key_press":86,"trial_type":"html-keyboard-response","trial_index":3,"time_elapsed":30795,"internal_node_id":"0.0-3.0-0.0","responseType":"finish","participantID":"j8ctshp0y1g9zzj4q73njfjh95793y2z"},{"rt":null,"stimulus":"\u003cb\u003e\u003ccenter\u003e\u003ch2\u003e\u003cp\u003eTEH\u003c/p\u003e\u003c/h2\u003e\u003c/center\u003e\u003c/b\u003e","key_press":null,"trial_type":"html-keyboard-response","trial_index":4,"time_elapsed":31297,"internal_node_id":"0.0-3.0-1.0","responseType":"finish","participantID":"j8ctshp0y1g9zzj4q73njfjh95793y2z"},{"rt":3127.3200000287034,"response":"0.1","stimulus":"\u003cp\u003eHow long do you think it will take you to solve this anagram?\u003c/p\u003e","trial_type":"html-slider-response","trial_index":5,"time_elapsed":34428,"internal_node_id":"0.0-3.0-2.0","responseType":"finish","participantID":"j8ctshp0y1g9zzj4q73njfjh95793y2z"},{"rt":4372,"responses":"{\"Q0\":\"THE\"}","trial_type":"survey-text","trial_index":6,"time_elapsed":38807,"internal_node_id":"0.0-3.0-3.0-0.0","responseType":"finish","participantID":"j8ctshp0y1g9zzj4q73njfjh95793y2z"},{"rt":3876,"responses":"{\"Q0\":6}","trial_type":"survey-likert","trial_index":7,"time_elapsed":42687,"internal_node_id":"0.0-3.0-4.0-0.0","responseType":"finish","participantID":"j8ctshp0y1g9zzj4q73njfjh95793y2z"},{"rt":6576,"responses":"{\"Q0\":6}","trial_type":"survey-likert","trial_index":8,"time_elapsed":49266,"internal_node_id":"0.0-3.0-4.0-0.1","responseType":"finish","participantID":"j8ctshp0y1g9zzj4q73njfjh95793y2z"},{"rt":2440,"stimulus":"\u003cblockquote\u003e\n  \u003cp\u003eNow an anagram will be shown to you. \u003cbr\u003e\u003cbr\u003e Press 'v' to view the anagram.\u003c/p\u003e\n\u003c/blockquote\u003e","key_press":86,"trial_type":"html-keyboard-response","trial_index":9,"time_elapsed":51708,"internal_node_id":"0.0-3.1-0.1","responseType":"finish","participantID":"j8ctshp0y1g9zzj4q73njfjh95793y2z"},{"rt":null,"stimulus":"\u003cb\u003e\u003ccenter\u003e\u003ch2\u003e\u003cp\u003eVLVOO\u003c/p\u003e\u003c/h2\u003e\u003c/center\u003e\u003c/b\u003e","key_press":null,"trial_type":"html-keyboard-response","trial_index":10,"time_elapsed":52210,"internal_node_id":"0.0-3.1-1.1","responseType":"finish","participantID":"j8ctshp0y1g9zzj4q73njfjh95793y2z"},{"rt":3283.045000047423,"response":"4.2","stimulus":"\u003cp\u003eHow long do you think it will take you to solve this anagram?\u003c/p\u003e","trial_type":"html-slider-response","trial_index":11,"time_elapsed":55495,"internal_node_id":"0.0-3.1-2.1","responseType":"finish","participantID":"j8ctshp0y1g9zzj4q73njfjh95793y2z"},{"rt":25900,"responses":"{\"Q0\":\"NEXT\"}","trial_type":"survey-text","trial_index":12,"time_elapsed":81398,"internal_node_id":"0.0-3.1-3.1-0.1","responseType":"finish","participantID":"j8ctshp0y1g9zzj4q73njfjh95793y2z"},{"rt":2091,"responses":"{\"Q0\":0}","trial_type":"survey-likert","trial_index":13,"time_elapsed":83492,"internal_node_id":"0.0-3.1-4.1-0.2","responseType":"finish","participantID":"j8ctshp0y1g9zzj4q73njfjh95793y2z"},{"rt":3491,"responses":"{\"Q0\":0}","trial_type":"survey-likert","trial_index":14,"time_elapsed":86987,"internal_node_id":"0.0-3.1-4.1-0.3","responseType":"finish","participantID":"j8ctshp0y1g9zzj4q73njfjh95793y2z"},{"rt":1441,"stimulus":"\u003cblockquote\u003e\n  \u003cp\u003eNow an anagram will be shown to you. \u003cbr\u003e\u003cbr\u003e Press 'v' to view the anagram.\u003c/p\u003e\n\u003c/blockquote\u003e","key_press":86,"trial_type":"html-keyboard-response","trial_index":15,"time_elapsed":88429,"internal_node_id":"0.0-3.2-0.2","responseType":"finish","participantID":"j8ctshp0y1g9zzj4q73njfjh95793y2z"},{"rt":null,"stimulus":"\u003cb\u003e\u003ccenter\u003e\u003ch2\u003e\u003cp\u003eKHAOMCM\u003c/p\u003e\u003c/h2\u003e\u003c/center\u003e\u003c/b\u003e","key_press":null,"trial_type":"html-keyboard-response","trial_index":16,"time_elapsed":88932,"internal_node_id":"0.0-3.2-1.2","responseType":"finish","participantID":"j8ctshp0y1g9zzj4q73njfjh95793y2z"},{"rt":3139.179999998305,"response":"5.7","stimulus":"\u003cp\u003eHow long do you think it will take you to solve this anagram?\u003c/p\u003e","trial_type":"html-slider-response","trial_index":17,"time_elapsed":92073,"internal_node_id":"0.0-3.2-2.2","responseType":"finish","participantID":"j8ctshp0y1g9zzj4q73njfjh95793y2z"},{"rt":66424,"responses":"{\"Q0\":\"NEXT\"}","trial_type":"survey-text","trial_index":18,"time_elapsed":158498,"internal_node_id":"0.0-3.2-3.2-0.2","responseType":"finish","participantID":"j8ctshp0y1g9zzj4q73njfjh95793y2z"},{"rt":3109,"responses":"{\"Q0\":2}","trial_type":"survey-likert","trial_index":19,"time_elapsed":161610,"internal_node_id":"0.0-3.2-4.2-0.4","responseType":"finish","participantID":"j8ctshp0y1g9zzj4q73njfjh95793y2z"},{"rt":3970,"responses":"{\"Q0\":0}","trial_type":"survey-likert","trial_index":20,"time_elapsed":165583,"internal_node_id":"0.0-3.2-4.2-0.5","responseType":"finish","participantID":"j8ctshp0y1g9zzj4q73njfjh95793y2z"}],"__v":0}
{"_id":{"$oid":"5d49c5786f29f700043efdf4"},"data":{"responseType":"start","participantID":"prvllg6d68ddgxnmdqmv7cc8axfssuc8"},"__v":0}
{"_id":{"$oid":"5d49c5816f29f700043efdf5"},"data":{"responseType":"start","participantID":"x3yjjaz42ufnb7sknylxqefhj06toxdf"},"__v":0}
{"_id":{"$oid":"5d49c58a6f29f700043efdf6"},"data":{"responseType":"start","participantID":"jlpgarv9kaz84vmbsxu64n4ltjb71wxh"},"__v":0}
{"_id":{"$oid":"5d49c58c6f29f700043efdf7"},"data":[{"rt":9432,"responses":"{\"Q0\":\" I consent to participate\"}","trial_type":"survey-multi-choice","trial_index":0,"time_elapsed":9435,"internal_node_id":"0.0-0.0","responseType":"finish","participantID":"yl2altayprynt094odv2wdbggkj08kbe"},{"trial_type":"call-function","trial_index":1,"time_elapsed":9439,"internal_node_id":"0.0-1.0","responseType":"finish","participantID":"yl2altayprynt094odv2wdbggkj08kbe"},{"view_history":"[{\"page_index\":0,\"viewing_time\":11129},{\"page_index\":1,\"viewing_time\":12464}]","rt":23594,"trial_type":"instructions","trial_index":2,"time_elapsed":33034,"internal_node_id":"0.0-2.0","responseType":"finish","participantID":"yl2altayprynt094odv2wdbggkj08kbe"},{"rt":3749,"stimulus":"\u003cblockquote\u003e\n  \u003cp\u003eNow an anagram will be shown to you. \u003cbr\u003e\u003cbr\u003e Press 'v' to view the anagram.\u003c/p\u003e\n\u003c/blockquote\u003e","key_press":86,"trial_type":"html-keyboard-response","trial_index":3,"time_elapsed":36784,"internal_node_id":"0.0-3.0-0.0","responseType":"finish","participantID":"yl2altayprynt094odv2wdbggkj08kbe"},{"rt":null,"stimulus":"\u003cb\u003e\u003ccenter\u003e\u003ch2\u003e\u003cp\u003eTEH\u003c/p\u003e\u003c/h2\u003e\u003c/center\u003e\u003c/b\u003e","key_press":null,"trial_type":"html-keyboard-response","trial_index":4,"time_elapsed":37288,"internal_node_id":"0.0-3.0-1.0","responseType":"finish","participantID":"yl2altayprynt094odv2wdbggkj08kbe"},{"rt":9568.424999946728,"response":"0.1","stimulus":"\u003cp\u003eHow long do you think it will take you to solve this anagram?\u003c/p\u003e","trial_type":"html-slider-response","trial_index":5,"time_elapsed":46857,"internal_node_id":"0.0-3.0-2.0","responseType":"finish","participantID":"yl2altayprynt094odv2wdbggkj08kbe"},{"rt":5278,"responses":"{\"Q0\":\"THE\"}","trial_type":"survey-text","trial_index":6,"time_elapsed":52137,"internal_node_id":"0.0-3.0-3.0-0.0","responseType":"finish","participantID":"yl2altayprynt094odv2wdbggkj08kbe"},{"rt":5952,"responses":"{\"Q0\":6}","trial_type":"survey-likert","trial_index":7,"time_elapsed":58091,"internal_node_id":"0.0-3.0-4.0-0.0","responseType":"finish","participantID":"yl2altayprynt094odv2wdbggkj08kbe"},{"rt":13229,"responses":"{\"Q0\":3}","trial_type":"survey-likert","trial_index":8,"time_elapsed":71323,"internal_node_id":"0.0-3.0-4.0-0.1","responseType":"finish","participantID":"yl2altayprynt094odv2wdbggkj08kbe"},{"rt":3524,"stimulus":"\u003cblockquote\u003e\n  \u003cp\u003eNow an anagram will be shown to you. \u003cbr\u003e\u003cbr\u003e Press 'v' to view the anagram.\u003c/p\u003e\n\u003c/blockquote\u003e","key_press":86,"trial_type":"html-keyboard-response","trial_index":9,"time_elapsed":74848,"internal_node_id":"0.0-3.1-0.1","responseType":"finish","participantID":"yl2altayprynt094odv2wdbggkj08kbe"},{"rt":null,"stimulus":"\u003cb\u003e\u003ccenter\u003e\u003ch2\u003e\u003cp\u003eVLVOO\u003c/p\u003e\u003c/h2\u003e\u003c/center\u003e\u003c/b\u003e","key_press":null,"trial_type":"html-keyboard-response","trial_index":10,"time_elapsed":75350,"internal_node_id":"0.0-3.1-1.1","responseType":"finish","participantID":"yl2altayprynt094odv2wdbggkj08kbe"},{"rt":9875.920000020415,"response":"3.9","stimulus":"\u003cp\u003eHow long do you think it will take you to solve this anagram?\u003c/p\u003e","trial_type":"html-slider-response","trial_index":11,"time_elapsed":85227,"internal_node_id":"0.0-3.1-2.1","responseType":"finish","participantID":"yl2altayprynt094odv2wdbggkj08kbe"},{"rt":119233,"responses":"{\"Q0\":\"NEXT\"}","trial_type":"survey-text","trial_index":12,"time_elapsed":204460,"internal_node_id":"0.0-3.1-3.1-0.1","responseType":"finish","participantID":"yl2altayprynt094odv2wdbggkj08kbe"},{"rt":3814,"responses":"{\"Q0\":1}","trial_type":"survey-likert","trial_index":13,"time_elapsed":208275,"internal_node_id":"0.0-3.1-4.1-0.2","responseType":"finish","participantID":"yl2altayprynt094odv2wdbggkj08kbe"},{"rt":5094,"responses":"{\"Q0\":0}","trial_type":"survey-likert","trial_index":14,"time_elapsed":213371,"internal_node_id":"0.0-3.1-4.1-0.3","responseType":"finish","participantID":"yl2altayprynt094odv2wdbggkj08kbe"},{"rt":2766,"stimulus":"\u003cblockquote\u003e\n  \u003cp\u003eNow an anagram will be shown to you. \u003cbr\u003e\u003cbr\u003e Press 'v' to view the anagram.\u003c/p\u003e\n\u003c/blockquote\u003e","key_press":86,"trial_type":"html-keyboard-response","trial_index":15,"time_elapsed":216137,"internal_node_id":"0.0-3.2-0.2","responseType":"finish","participantID":"yl2altayprynt094odv2wdbggkj08kbe"},{"rt":null,"stimulus":"\u003cb\u003e\u003ccenter\u003e\u003ch2\u003e\u003cp\u003eKHAOMCM\u003c/p\u003e\u003c/h2\u003e\u003c/center\u003e\u003c/b\u003e","key_press":null,"trial_type":"html-keyboard-response","trial_index":16,"time_elapsed":216638,"internal_node_id":"0.0-3.2-1.2","responseType":"finish","participantID":"yl2altayprynt094odv2wdbggkj08kbe"},{"rt":8540.019999956712,"response":"5.9","stimulus":"\u003cp\u003eHow long do you think it will take you to solve this anagram?\u003c/p\u003e","trial_type":"html-slider-response","trial_index":17,"time_elapsed":225178,"internal_node_id":"0.0-3.2-2.2","responseType":"finish","participantID":"yl2altayprynt094odv2wdbggkj08kbe"},{"rt":52127,"responses":"{\"Q0\":\"hammock\"}","trial_type":"survey-text","trial_index":18,"time_elapsed":277306,"internal_node_id":"0.0-3.2-3.2-0.2","responseType":"finish","participantID":"yl2altayprynt094odv2wdbggkj08kbe"},{"rt":5407,"responses":"{\"Q0\":3}","trial_type":"survey-likert","trial_index":19,"time_elapsed":282715,"internal_node_id":"0.0-3.2-4.2-0.4","responseType":"finish","participantID":"yl2altayprynt094odv2wdbggkj08kbe"},{"rt":8222,"responses":"{\"Q0\":6}","trial_type":"survey-likert","trial_index":20,"time_elapsed":290938,"internal_node_id":"0.0-3.2-4.2-0.5","responseType":"finish","participantID":"yl2altayprynt094odv2wdbggkj08kbe"}],"__v":0}
{"_id":{"$oid":"5d49c58f6f29f700043efdf8"},"data":[{"rt":16794,"responses":"{\"Q0\":\" I consent to participate\"}","trial_type":"survey-multi-choice","trial_index":0,"time_elapsed":16796,"internal_node_id":"0.0-0.0","responseType":"finish","participantID":"ad65awny8vcff2hgxn7c7pycr1yuag5x"},{"trial_type":"call-function","trial_index":1,"time_elapsed":16799,"internal_node_id":"0.0-1.0","responseType":"finish","participantID":"ad65awny8vcff2hgxn7c7pycr1yuag5x"},{"view_history":"[{\"page_index\":0,\"viewing_time\":9115},{\"page_index\":1,\"viewing_time\":8342}]","rt":17458,"trial_type":"instructions","trial_index":2,"time_elapsed":34257,"internal_node_id":"0.0-2.0","responseType":"finish","participantID":"ad65awny8vcff2hgxn7c7pycr1yuag5x"},{"rt":2538,"stimulus":"\u003cblockquote\u003e\n  \u003cp\u003eNow an anagram will be shown to you. \u003cbr\u003e\u003cbr\u003e Press 'v' to view the anagram.\u003c/p\u003e\n\u003c/blockquote\u003e","key_press":86,"trial_type":"html-keyboard-response","trial_index":3,"time_elapsed":36796,"internal_node_id":"0.0-3.0-0.0","responseType":"finish","participantID":"ad65awny8vcff2hgxn7c7pycr1yuag5x"},{"rt":null,"stimulus":"\u003cb\u003e\u003ccenter\u003e\u003ch2\u003e\u003cp\u003eTEH\u003c/p\u003e\u003c/h2\u003e\u003c/center\u003e\u003c/b\u003e","key_press":null,"trial_type":"html-keyboard-response","trial_index":4,"time_elapsed":37305,"internal_node_id":"0.0-3.0-1.0","responseType":"finish","participantID":"ad65awny8vcff2hgxn7c7pycr1yuag5x"},{"rt":7768.845000013243,"response":"0","stimulus":"\u003cp\u003eHow long do you think it will take you to solve this anagram?\u003c/p\u003e","trial_type":"html-slider-response","trial_index":5,"time_elapsed":45074,"internal_node_id":"0.0-3.0-2.0","responseType":"finish","participantID":"ad65awny8vcff2hgxn7c7pycr1yuag5x"},{"rt":3750,"responses":"{\"Q0\":\"the\"}","trial_type":"survey-text","trial_index":6,"time_elapsed":48826,"internal_node_id":"0.0-3.0-3.0-0.0","responseType":"finish","participantID":"ad65awny8vcff2hgxn7c7pycr1yuag5x"},{"rt":4185,"responses":"{\"Q0\":4}","trial_type":"survey-likert","trial_index":7,"time_elapsed":53013,"internal_node_id":"0.0-3.0-4.0-0.0","responseType":"finish","participantID":"ad65awny8vcff2hgxn7c7pycr1yuag5x"},{"rt":7287,"responses":"{\"Q0\":0}","trial_type":"survey-likert","trial_index":8,"time_elapsed":60301,"internal_node_id":"0.0-3.0-4.0-0.1","responseType":"finish","participantID":"ad65awny8vcff2hgxn7c7pycr1yuag5x"},{"rt":2051,"stimulus":"\u003cblockquote\u003e\n  \u003cp\u003eNow an anagram will be shown to you. \u003cbr\u003e\u003cbr\u003e Press 'v' to view the anagram.\u003c/p\u003e\n\u003c/blockquote\u003e","key_press":86,"trial_type":"html-keyboard-response","trial_index":9,"time_elapsed":62353,"internal_node_id":"0.0-3.1-0.1","responseType":"finish","participantID":"ad65awny8vcff2hgxn7c7pycr1yuag5x"},{"rt":null,"stimulus":"\u003cb\u003e\u003ccenter\u003e\u003ch2\u003e\u003cp\u003eVLVOO\u003c/p\u003e\u003c/h2\u003e\u003c/center\u003e\u003c/b\u003e","key_press":null,"trial_type":"html-keyboard-response","trial_index":10,"time_elapsed":62855,"internal_node_id":"0.0-3.1-1.1","responseType":"finish","participantID":"ad65awny8vcff2hgxn7c7pycr1yuag5x"},{"rt":7670.604999992065,"response":"0","stimulus":"\u003cp\u003eHow long do you think it will take you to solve this anagram?\u003c/p\u003e","trial_type":"html-slider-response","trial_index":11,"time_elapsed":70526,"internal_node_id":"0.0-3.1-2.1","responseType":"finish","participantID":"ad65awny8vcff2hgxn7c7pycr1yuag5x"},{"rt":4323,"responses":"{\"Q0\":\"volvo\"}","trial_type":"survey-text","trial_index":12,"time_elapsed":74849,"internal_node_id":"0.0-3.1-3.1-0.1","responseType":"finish","participantID":"ad65awny8vcff2hgxn7c7pycr1yuag5x"},{"rt":2753,"responses":"{\"Q0\":4}","trial_type":"survey-likert","trial_index":13,"time_elapsed":77602,"internal_node_id":"0.0-3.1-4.1-0.2","responseType":"finish","participantID":"ad65awny8vcff2hgxn7c7pycr1yuag5x"},{"rt":2482,"responses":"{\"Q0\":0}","trial_type":"survey-likert","trial_index":14,"time_elapsed":80085,"internal_node_id":"0.0-3.1-4.1-0.3","responseType":"finish","participantID":"ad65awny8vcff2hgxn7c7pycr1yuag5x"},{"rt":2523,"stimulus":"\u003cblockquote\u003e\n  \u003cp\u003eNow an anagram will be shown to you. \u003cbr\u003e\u003cbr\u003e Press 'v' to view the anagram.\u003c/p\u003e\n\u003c/blockquote\u003e","key_press":86,"trial_type":"html-keyboard-response","trial_index":15,"time_elapsed":82609,"internal_node_id":"0.0-3.2-0.2","responseType":"finish","participantID":"ad65awny8vcff2hgxn7c7pycr1yuag5x"},{"rt":null,"stimulus":"\u003cb\u003e\u003ccenter\u003e\u003ch2\u003e\u003cp\u003eKHAOMCM\u003c/p\u003e\u003c/h2\u003e\u003c/center\u003e\u003c/b\u003e","key_press":null,"trial_type":"html-keyboard-response","trial_index":16,"time_elapsed":83110,"internal_node_id":"0.0-3.2-1.2","responseType":"finish","participantID":"ad65awny8vcff2hgxn7c7pycr1yuag5x"},{"rt":11553.825000009965,"response":"2.3","stimulus":"\u003cp\u003eHow long do you think it will take you to solve this anagram?\u003c/p\u003e","trial_type":"html-slider-response","trial_index":17,"time_elapsed":94665,"internal_node_id":"0.0-3.2-2.2","responseType":"finish","participantID":"ad65awny8vcff2hgxn7c7pycr1yuag5x"},{"rt":68909,"responses":"{\"Q0\":\"hammock\"}","trial_type":"survey-text","trial_index":18,"time_elapsed":163575,"internal_node_id":"0.0-3.2-3.2-0.2","responseType":"finish","participantID":"ad65awny8vcff2hgxn7c7pycr1yuag5x"},{"rt":3299,"responses":"{\"Q0\":5}","trial_type":"survey-likert","trial_index":19,"time_elapsed":166875,"internal_node_id":"0.0-3.2-4.2-0.4","responseType":"finish","participantID":"ad65awny8vcff2hgxn7c7pycr1yuag5x"},{"rt":6708,"responses":"{\"Q0\":3}","trial_type":"survey-likert","trial_index":20,"time_elapsed":173585,"internal_node_id":"0.0-3.2-4.2-0.5","responseType":"finish","participantID":"ad65awny8vcff2hgxn7c7pycr1yuag5x"}],"__v":0}
{"_id":{"$oid":"5d49c5916f29f700043efdf9"},"data":[{"rt":4711,"responses":"{\"Q0\":\" I consent to participate\"}","trial_type":"survey-multi-choice","trial_index":0,"time_elapsed":4716,"internal_node_id":"0.0-0.0","responseType":"finish","participantID":"t65mg9k8154lx1jnbs4af4ydox89cjnd"},{"trial_type":"call-function","trial_index":1,"time_elapsed":4723,"internal_node_id":"0.0-1.0","responseType":"finish","participantID":"t65mg9k8154lx1jnbs4af4ydox89cjnd"},{"view_history":"[{\"page_index\":0,\"viewing_time\":8145},{\"page_index\":1,\"viewing_time\":7062}]","rt":15208,"trial_type":"instructions","trial_index":2,"time_elapsed":19931,"internal_node_id":"0.0-2.0","responseType":"finish","participantID":"t65mg9k8154lx1jnbs4af4ydox89cjnd"},{"rt":2651,"stimulus":"\u003cblockquote\u003e\n  \u003cp\u003eNow an anagram will be shown to you. \u003cbr\u003e\u003cbr\u003e Press 'v' to view the anagram.\u003c/p\u003e\n\u003c/blockquote\u003e","key_press":86,"trial_type":"html-keyboard-response","trial_index":3,"time_elapsed":22583,"internal_node_id":"0.0-3.0-0.0","responseType":"finish","participantID":"t65mg9k8154lx1jnbs4af4ydox89cjnd"},{"rt":null,"stimulus":"\u003cb\u003e\u003ccenter\u003e\u003ch2\u003e\u003cp\u003eTEH\u003c/p\u003e\u003c/h2\u003e\u003c/center\u003e\u003c/b\u003e","key_press":null,"trial_type":"html-keyboard-response","trial_index":4,"time_elapsed":23087,"internal_node_id":"0.0-3.0-1.0","responseType":"finish","participantID":"t65mg9k8154lx1jnbs4af4ydox89cjnd"},{"rt":5454.549999907613,"response":"0","stimulus":"\u003cp\u003eHow long do you think it will take you to solve this anagram?\u003c/p\u003e","trial_type":"html-slider-response","trial_index":5,"time_elapsed":28543,"internal_node_id":"0.0-3.0-2.0","responseType":"finish","participantID":"t65mg9k8154lx1jnbs4af4ydox89cjnd"},{"rt":3854,"responses":"{\"Q0\":\"the\"}","trial_type":"survey-text","trial_index":6,"time_elapsed":32399,"internal_node_id":"0.0-3.0-3.0-0.0","responseType":"finish","participantID":"t65mg9k8154lx1jnbs4af4ydox89cjnd"},{"rt":4514,"responses":"{\"Q0\":5}","trial_type":"survey-likert","trial_index":7,"time_elapsed":36915,"internal_node_id":"0.0-3.0-4.0-0.0","responseType":"finish","participantID":"t65mg9k8154lx1jnbs4af4ydox89cjnd"},{"rt":9299,"responses":"{\"Q0\":6}","trial_type":"survey-likert","trial_index":8,"time_elapsed":46219,"internal_node_id":"0.0-3.0-4.0-0.1","responseType":"finish","participantID":"t65mg9k8154lx1jnbs4af4ydox89cjnd"},{"rt":2333,"stimulus":"\u003cblockquote\u003e\n  \u003cp\u003eNow an anagram will be shown to you. \u003cbr\u003e\u003cbr\u003e Press 'v' to view the anagram.\u003c/p\u003e\n\u003c/blockquote\u003e","key_press":86,"trial_type":"html-keyboard-response","trial_index":9,"time_elapsed":48557,"internal_node_id":"0.0-3.1-0.1","responseType":"finish","participantID":"t65mg9k8154lx1jnbs4af4ydox89cjnd"},{"rt":null,"stimulus":"\u003cb\u003e\u003ccenter\u003e\u003ch2\u003e\u003cp\u003eVLVOO\u003c/p\u003e\u003c/h2\u003e\u003c/center\u003e\u003c/b\u003e","key_press":null,"trial_type":"html-keyboard-response","trial_index":10,"time_elapsed":49060,"internal_node_id":"0.0-3.1-1.1","responseType":"finish","participantID":"t65mg9k8154lx1jnbs4af4ydox89cjnd"},{"rt":5635.9250000678,"response":"0.2","stimulus":"\u003cp\u003eHow long do you think it will take you to solve this anagram?\u003c/p\u003e","trial_type":"html-slider-response","trial_index":11,"time_elapsed":54696,"internal_node_id":"0.0-3.1-2.1","responseType":"finish","participantID":"t65mg9k8154lx1jnbs4af4ydox89cjnd"},{"rt":5388,"responses":"{\"Q0\":\"volvo\"}","trial_type":"survey-text","trial_index":12,"time_elapsed":60085,"internal_node_id":"0.0-3.1-3.1-0.1","responseType":"finish","participantID":"t65mg9k8154lx1jnbs4af4ydox89cjnd"},{"rt":2930,"responses":"{\"Q0\":5}","trial_type":"survey-likert","trial_index":13,"time_elapsed":63017,"internal_node_id":"0.0-3.1-4.1-0.2","responseType":"finish","participantID":"t65mg9k8154lx1jnbs4af4ydox89cjnd"},{"rt":8193,"responses":"{\"Q0\":5}","trial_type":"survey-likert","trial_index":14,"time_elapsed":71214,"internal_node_id":"0.0-3.1-4.1-0.3","responseType":"finish","participantID":"t65mg9k8154lx1jnbs4af4ydox89cjnd"},{"rt":1954,"stimulus":"\u003cblockquote\u003e\n  \u003cp\u003eNow an anagram will be shown to you. \u003cbr\u003e\u003cbr\u003e Press 'v' to view the anagram.\u003c/p\u003e\n\u003c/blockquote\u003e","key_press":86,"trial_type":"html-keyboard-response","trial_index":15,"time_elapsed":73173,"internal_node_id":"0.0-3.2-0.2","responseType":"finish","participantID":"t65mg9k8154lx1jnbs4af4ydox89cjnd"},{"rt":null,"stimulus":"\u003cb\u003e\u003ccenter\u003e\u003ch2\u003e\u003cp\u003eKHAOMCM\u003c/p\u003e\u003c/h2\u003e\u003c/center\u003e\u003c/b\u003e","key_press":null,"trial_type":"html-keyboard-response","trial_index":16,"time_elapsed":73675,"internal_node_id":"0.0-3.2-1.2","responseType":"finish","participantID":"t65mg9k8154lx1jnbs4af4ydox89cjnd"},{"rt":4888.114999979734,"response":"1.6","stimulus":"\u003cp\u003eHow long do you think it will take you to solve this anagram?\u003c/p\u003e","trial_type":"html-slider-response","trial_index":17,"time_elapsed":78564,"internal_node_id":"0.0-3.2-2.2","responseType":"finish","participantID":"t65mg9k8154lx1jnbs4af4ydox89cjnd"},{"rt":50079,"responses":"{\"Q0\":\"NEXT\"}","trial_type":"survey-text","trial_index":18,"time_elapsed":128644,"internal_node_id":"0.0-3.2-3.2-0.2","responseType":"finish","participantID":"t65mg9k8154lx1jnbs4af4ydox89cjnd"},{"rt":3069,"responses":"{\"Q0\":5}","trial_type":"survey-likert","trial_index":19,"time_elapsed":131714,"internal_node_id":"0.0-3.2-4.2-0.4","responseType":"finish","participantID":"t65mg9k8154lx1jnbs4af4ydox89cjnd"},{"rt":3710,"responses":"{\"Q0\":0}","trial_type":"survey-likert","trial_index":20,"time_elapsed":135429,"internal_node_id":"0.0-3.2-4.2-0.5","responseType":"finish","participantID":"t65mg9k8154lx1jnbs4af4ydox89cjnd"}],"__v":0}
{"_id":{"$oid":"5d49c5986f29f700043efdfa"},"data":[{"rt":6752,"responses":"{\"Q0\":\" I consent to participate\"}","trial_type":"survey-multi-choice","trial_index":0,"time_elapsed":6754,"internal_node_id":"0.0-0.0","responseType":"finish","participantID":"7td7ok9v4yorx71bmm3mzxhal7dyfkpn"},{"trial_type":"call-function","trial_index":1,"time_elapsed":6760,"internal_node_id":"0.0-1.0","responseType":"finish","participantID":"7td7ok9v4yorx71bmm3mzxhal7dyfkpn"},{"view_history":"[{\"page_index\":0,\"viewing_time\":13583},{\"page_index\":1,\"viewing_time\":4606}]","rt":18190,"trial_type":"instructions","trial_index":2,"time_elapsed":24950,"internal_node_id":"0.0-2.0","responseType":"finish","participantID":"7td7ok9v4yorx71bmm3mzxhal7dyfkpn"},{"rt":2837,"stimulus":"\u003cblockquote\u003e\n  \u003cp\u003eNow an anagram will be shown to you. \u003cbr\u003e\u003cbr\u003e Press 'v' to view the anagram.\u003c/p\u003e\n\u003c/blockquote\u003e","key_press":86,"trial_type":"html-keyboard-response","trial_index":3,"time_elapsed":27788,"internal_node_id":"0.0-3.0-0.0","responseType":"finish","participantID":"7td7ok9v4yorx71bmm3mzxhal7dyfkpn"},{"rt":null,"stimulus":"\u003cb\u003e\u003ccenter\u003e\u003ch2\u003e\u003cp\u003eTEH\u003c/p\u003e\u003c/h2\u003e\u003c/center\u003e\u003c/b\u003e","key_press":null,"trial_type":"html-keyboard-response","trial_index":4,"time_elapsed":28292,"internal_node_id":"0.0-3.0-1.0","responseType":"finish","participantID":"7td7ok9v4yorx71bmm3mzxhal7dyfkpn"},{"rt":3862.7550000001065,"response":"0","stimulus":"\u003cp\u003eHow long do you think it will take you to solve this anagram?\u003c/p\u003e","trial_type":"html-slider-response","trial_index":5,"time_elapsed":32156,"internal_node_id":"0.0-3.0-2.0","responseType":"finish","participantID":"7td7ok9v4yorx71bmm3mzxhal7dyfkpn"},{"rt":6056,"responses":"{\"Q0\":\"the\"}","trial_type":"survey-text","trial_index":6,"time_elapsed":38213,"internal_node_id":"0.0-3.0-3.0-0.0","responseType":"finish","participantID":"7td7ok9v4yorx71bmm3mzxhal7dyfkpn"},{"rt":7335,"responses":"{\"Q0\":4}","trial_type":"survey-likert","trial_index":7,"time_elapsed":45550,"internal_node_id":"0.0-3.0-4.0-0.0","responseType":"finish","participantID":"7td7ok9v4yorx71bmm3mzxhal7dyfkpn"},{"rt":10808,"responses":"{\"Q0\":5}","trial_type":"survey-likert","trial_index":8,"time_elapsed":56362,"internal_node_id":"0.0-3.0-4.0-0.1","responseType":"finish","participantID":"7td7ok9v4yorx71bmm3mzxhal7dyfkpn"},{"rt":1850,"stimulus":"\u003cblockquote\u003e\n  \u003cp\u003eNow an anagram will be shown to you. \u003cbr\u003e\u003cbr\u003e Press 'v' to view the anagram.\u003c/p\u003e\n\u003c/blockquote\u003e","key_press":86,"trial_type":"html-keyboard-response","trial_index":9,"time_elapsed":58214,"internal_node_id":"0.0-3.1-0.1","responseType":"finish","participantID":"7td7ok9v4yorx71bmm3mzxhal7dyfkpn"},{"rt":null,"stimulus":"\u003cb\u003e\u003ccenter\u003e\u003ch2\u003e\u003cp\u003eVLVOO\u003c/p\u003e\u003c/h2\u003e\u003c/center\u003e\u003c/b\u003e","key_press":null,"trial_type":"html-keyboard-response","trial_index":10,"time_elapsed":58716,"internal_node_id":"0.0-3.1-1.1","responseType":"finish","participantID":"7td7ok9v4yorx71bmm3mzxhal7dyfkpn"},{"rt":3014.209999999366,"response":"0","stimulus":"\u003cp\u003eHow long do you think it will take you to solve this anagram?\u003c/p\u003e","trial_type":"html-slider-response","trial_index":11,"time_elapsed":61731,"internal_node_id":"0.0-3.1-2.1","responseType":"finish","participantID":"7td7ok9v4yorx71bmm3mzxhal7dyfkpn"},{"rt":3965,"responses":"{\"Q0\":\"volvo\"}","trial_type":"survey-text","trial_index":12,"time_elapsed":65698,"internal_node_id":"0.0-3.1-3.1-0.1","responseType":"finish","participantID":"7td7ok9v4yorx71bmm3mzxhal7dyfkpn"},{"rt":2207,"responses":"{\"Q0\":4}","trial_type":"survey-likert","trial_index":13,"time_elapsed":67906,"internal_node_id":"0.0-3.1-4.1-0.2","responseType":"finish","participantID":"7td7ok9v4yorx71bmm3mzxhal7dyfkpn"},{"rt":4471,"responses":"{\"Q0\":5}","trial_type":"survey-likert","trial_index":14,"time_elapsed":72380,"internal_node_id":"0.0-3.1-4.1-0.3","responseType":"finish","participantID":"7td7ok9v4yorx71bmm3mzxhal7dyfkpn"},{"rt":1330,"stimulus":"\u003cblockquote\u003e\n  \u003cp\u003eNow an anagram will be shown to you. \u003cbr\u003e\u003cbr\u003e Press 'v' to view the anagram.\u003c/p\u003e\n\u003c/blockquote\u003e","key_press":86,"trial_type":"html-keyboard-response","trial_index":15,"time_elapsed":73712,"internal_node_id":"0.0-3.2-0.2","responseType":"finish","participantID":"7td7ok9v4yorx71bmm3mzxhal7dyfkpn"},{"rt":null,"stimulus":"\u003cb\u003e\u003ccenter\u003e\u003ch2\u003e\u003cp\u003eKHAOMCM\u003c/p\u003e\u003c/h2\u003e\u003c/center\u003e\u003c/b\u003e","key_press":null,"trial_type":"html-keyboard-response","trial_index":16,"time_elapsed":74214,"internal_node_id":"0.0-3.2-1.2","responseType":"finish","participantID":"7td7ok9v4yorx71bmm3mzxhal7dyfkpn"},{"rt":4220.924999999625,"response":"4.6","stimulus":"\u003cp\u003eHow long do you think it will take you to solve this anagram?\u003c/p\u003e","trial_type":"html-slider-response","trial_index":17,"time_elapsed":78435,"internal_node_id":"0.0-3.2-2.2","responseType":"finish","participantID":"7td7ok9v4yorx71bmm3mzxhal7dyfkpn"},{"rt":30555,"responses":"{\"Q0\":\"next\"}","trial_type":"survey-text","trial_index":18,"time_elapsed":108991,"internal_node_id":"0.0-3.2-3.2-0.2","responseType":"finish","participantID":"7td7ok9v4yorx71bmm3mzxhal7dyfkpn"},{"rt":3092,"responses":"{\"Q0\":1}","trial_type":"survey-likert","trial_index":19,"time_elapsed":112084,"internal_node_id":"0.0-3.2-4.2-0.4","responseType":"finish","participantID":"7td7ok9v4yorx71bmm3mzxhal7dyfkpn"},{"rt":2142,"responses":"{\"Q0\":0}","trial_type":"survey-likert","trial_index":20,"time_elapsed":114230,"internal_node_id":"0.0-3.2-4.2-0.5","responseType":"finish","participantID":"7td7ok9v4yorx71bmm3mzxhal7dyfkpn"}],"__v":0}
{"_id":{"$oid":"5d49c5e56f29f700043efdfb"},"data":{"responseType":"start","participantID":"c3d5yo7604p9b8ssmkde4sshosps792q"},"__v":0}
{"_id":{"$oid":"5d49c60e6f29f700043efdfc"},"data":[{"rt":8391,"responses":"{\"Q0\":\" I consent to participate\"}","trial_type":"survey-multi-choice","trial_index":0,"time_elapsed":8399,"internal_node_id":"0.0-0.0","responseType":"finish","participantID":"prvllg6d68ddgxnmdqmv7cc8axfssuc8"},{"trial_type":"call-function","trial_index":1,"time_elapsed":8406,"internal_node_id":"0.0-1.0","responseType":"finish","participantID":"prvllg6d68ddgxnmdqmv7cc8axfssuc8"},{"view_history":"[{\"page_index\":0,\"viewing_time\":11282},{\"page_index\":1,\"viewing_time\":7739}]","rt":19022,"trial_type":"instructions","trial_index":2,"time_elapsed":27429,"internal_node_id":"0.0-2.0","responseType":"finish","participantID":"prvllg6d68ddgxnmdqmv7cc8axfssuc8"},{"rt":2705,"stimulus":"\u003cblockquote\u003e\n  \u003cp\u003eNow an anagram will be shown to you. \u003cbr\u003e\u003cbr\u003e Press 'v' to view the anagram.\u003c/p\u003e\n\u003c/blockquote\u003e","key_press":86,"trial_type":"html-keyboard-response","trial_index":3,"time_elapsed":30137,"internal_node_id":"0.0-3.0-0.0","responseType":"finish","participantID":"prvllg6d68ddgxnmdqmv7cc8axfssuc8"},{"rt":null,"stimulus":"\u003cb\u003e\u003ccenter\u003e\u003ch2\u003e\u003cp\u003eTEH\u003c/p\u003e\u003c/h2\u003e\u003c/center\u003e\u003c/b\u003e","key_press":null,"trial_type":"html-keyboard-response","trial_index":4,"time_elapsed":30644,"internal_node_id":"0.0-3.0-1.0","responseType":"finish","participantID":"prvllg6d68ddgxnmdqmv7cc8axfssuc8"},{"rt":3143.7999999998283,"response":"0","stimulus":"\u003cp\u003eHow long do you think it will take you to solve this anagram?\u003c/p\u003e","trial_type":"html-slider-response","trial_index":5,"time_elapsed":33790,"internal_node_id":"0.0-3.0-2.0","responseType":"finish","participantID":"prvllg6d68ddgxnmdqmv7cc8axfssuc8"},{"rt":5241,"responses":"{\"Q0\":\"The\"}","trial_type":"survey-text","trial_index":6,"time_elapsed":39033,"internal_node_id":"0.0-3.0-3.0-0.0","responseType":"finish","participantID":"prvllg6d68ddgxnmdqmv7cc8axfssuc8"},{"rt":7324,"responses":"{\"Q0\":5}","trial_type":"survey-likert","trial_index":7,"time_elapsed":46359,"internal_node_id":"0.0-3.0-4.0-0.0","responseType":"finish","participantID":"prvllg6d68ddgxnmdqmv7cc8axfssuc8"},{"rt":36775,"responses":"{\"Q0\":3}","trial_type":"survey-likert","trial_index":8,"time_elapsed":83141,"internal_node_id":"0.0-3.0-4.0-0.1","responseType":"finish","participantID":"prvllg6d68ddgxnmdqmv7cc8axfssuc8"},{"rt":1762,"stimulus":"\u003cblockquote\u003e\n  \u003cp\u003eNow an anagram will be shown to you. \u003cbr\u003e\u003cbr\u003e Press 'v' to view the anagram.\u003c/p\u003e\n\u003c/blockquote\u003e","key_press":86,"trial_type":"html-keyboard-response","trial_index":9,"time_elapsed":84912,"internal_node_id":"0.0-3.1-0.1","responseType":"finish","participantID":"prvllg6d68ddgxnmdqmv7cc8axfssuc8"},{"rt":null,"stimulus":"\u003cb\u003e\u003ccenter\u003e\u003ch2\u003e\u003cp\u003eVLVOO\u003c/p\u003e\u003c/h2\u003e\u003c/center\u003e\u003c/b\u003e","key_press":null,"trial_type":"html-keyboard-response","trial_index":10,"time_elapsed":85413,"internal_node_id":"0.0-3.1-1.1","responseType":"finish","participantID":"prvllg6d68ddgxnmdqmv7cc8axfssuc8"},{"rt":4469.525000000431,"response":"1.2","stimulus":"\u003cp\u003eHow long do you think it will take you to solve this anagram?\u003c/p\u003e","trial_type":"html-slider-response","trial_index":11,"time_elapsed":89893,"internal_node_id":"0.0-3.1-2.1","responseType":"finish","participantID":"prvllg6d68ddgxnmdqmv7cc8axfssuc8"},{"rt":32228,"responses":"{\"Q0\":\"Volvo\"}","trial_type":"survey-text","trial_index":12,"time_elapsed":122123,"internal_node_id":"0.0-3.1-3.1-0.1","responseType":"finish","participantID":"prvllg6d68ddgxnmdqmv7cc8axfssuc8"},{"rt":12123,"responses":"{\"Q0\":4}","trial_type":"survey-likert","trial_index":13,"time_elapsed":134248,"internal_node_id":"0.0-3.1-4.1-0.2","responseType":"finish","participantID":"prvllg6d68ddgxnmdqmv7cc8axfssuc8"},{"rt":6267,"responses":"{\"Q0\":4}","trial_type":"survey-likert","trial_index":14,"time_elapsed":140520,"internal_node_id":"0.0-3.1-4.1-0.3","responseType":"finish","participantID":"prvllg6d68ddgxnmdqmv7cc8axfssuc8"},{"rt":1373,"stimulus":"\u003cblockquote\u003e\n  \u003cp\u003eNow an anagram will be shown to you. \u003cbr\u003e\u003cbr\u003e Press 'v' to view the anagram.\u003c/p\u003e\n\u003c/blockquote\u003e","key_press":86,"trial_type":"html-keyboard-response","trial_index":15,"time_elapsed":141896,"internal_node_id":"0.0-3.2-0.2","responseType":"finish","participantID":"prvllg6d68ddgxnmdqmv7cc8axfssuc8"},{"rt":null,"stimulus":"\u003cb\u003e\u003ccenter\u003e\u003ch2\u003e\u003cp\u003eKHAOMCM\u003c/p\u003e\u003c/h2\u003e\u003c/center\u003e\u003c/b\u003e","key_press":null,"trial_type":"html-keyboard-response","trial_index":16,"time_elapsed":142398,"internal_node_id":"0.0-3.2-1.2","responseType":"finish","participantID":"prvllg6d68ddgxnmdqmv7cc8axfssuc8"},{"rt":2285.464999999007,"response":"2.3","stimulus":"\u003cp\u003eHow long do you think it will take you to solve this anagram?\u003c/p\u003e","trial_type":"html-slider-response","trial_index":17,"time_elapsed":144684,"internal_node_id":"0.0-3.2-2.2","responseType":"finish","participantID":"prvllg6d68ddgxnmdqmv7cc8axfssuc8"},{"rt":9365,"responses":"{\"Q0\":\"Next\"}","trial_type":"survey-text","trial_index":18,"time_elapsed":154050,"internal_node_id":"0.0-3.2-3.2-0.2","responseType":"finish","participantID":"prvllg6d68ddgxnmdqmv7cc8axfssuc8"},{"rt":2173,"responses":"{\"Q0\":3}","trial_type":"survey-likert","trial_index":19,"time_elapsed":156226,"internal_node_id":"0.0-3.2-4.2-0.4","responseType":"finish","participantID":"prvllg6d68ddgxnmdqmv7cc8axfssuc8"},{"rt":2046,"responses":"{\"Q0\":0}","trial_type":"survey-likert","trial_index":20,"time_elapsed":158280,"internal_node_id":"0.0-3.2-4.2-0.5","responseType":"finish","participantID":"prvllg6d68ddgxnmdqmv7cc8axfssuc8"}],"__v":0}
{"_id":{"$oid":"5d49c60e6f29f700043efdfd"},"data":{"responseType":"start","participantID":"7px6vpr1njogr7sfdvayszb99yl8kj4z"},"__v":0}
{"_id":{"$oid":"5d49c64a6f29f700043efdfe"},"data":{"responseType":"start","participantID":"rtpl2stq3qwqnu0zzkrwkvd96tfvqshp"},"__v":0}
{"_id":{"$oid":"5d49c64c6f29f700043efdff"},"data":[{"rt":5577,"responses":"{\"Q0\":\" I consent to participate\"}","trial_type":"survey-multi-choice","trial_index":0,"time_elapsed":5579,"internal_node_id":"0.0-0.0","responseType":"finish","participantID":"jlpgarv9kaz84vmbsxu64n4ltjb71wxh"},{"trial_type":"call-function","trial_index":1,"time_elapsed":5584,"internal_node_id":"0.0-1.0","responseType":"finish","participantID":"jlpgarv9kaz84vmbsxu64n4ltjb71wxh"},{"view_history":"[{\"page_index\":0,\"viewing_time\":58602},{\"page_index\":1,\"viewing_time\":12848}]","rt":71450,"trial_type":"instructions","trial_index":2,"time_elapsed":77034,"internal_node_id":"0.0-2.0","responseType":"finish","participantID":"jlpgarv9kaz84vmbsxu64n4ltjb71wxh"},{"rt":3336,"stimulus":"\u003cblockquote\u003e\n  \u003cp\u003eNow an anagram will be shown to you. \u003cbr\u003e\u003cbr\u003e Press 'v' to view the anagram.\u003c/p\u003e\n\u003c/blockquote\u003e","key_press":86,"trial_type":"html-keyboard-response","trial_index":3,"time_elapsed":80371,"internal_node_id":"0.0-3.0-0.0","responseType":"finish","participantID":"jlpgarv9kaz84vmbsxu64n4ltjb71wxh"},{"rt":null,"stimulus":"\u003cb\u003e\u003ccenter\u003e\u003ch2\u003e\u003cp\u003eTEH\u003c/p\u003e\u003c/h2\u003e\u003c/center\u003e\u003c/b\u003e","key_press":null,"trial_type":"html-keyboard-response","trial_index":4,"time_elapsed":80881,"internal_node_id":"0.0-3.0-1.0","responseType":"finish","participantID":"jlpgarv9kaz84vmbsxu64n4ltjb71wxh"},{"rt":3599.450000037905,"response":"0","stimulus":"\u003cp\u003eHow long do you think it will take you to solve this anagram?\u003c/p\u003e","trial_type":"html-slider-response","trial_index":5,"time_elapsed":84482,"internal_node_id":"0.0-3.0-2.0","responseType":"finish","participantID":"jlpgarv9kaz84vmbsxu64n4ltjb71wxh"},{"rt":4959,"responses":"{\"Q0\":\"the\"}","trial_type":"survey-text","trial_index":6,"time_elapsed":89442,"internal_node_id":"0.0-3.0-3.0-0.0","responseType":"finish","participantID":"jlpgarv9kaz84vmbsxu64n4ltjb71wxh"},{"rt":3495,"responses":"{\"Q0\":6}","trial_type":"survey-likert","trial_index":7,"time_elapsed":92939,"internal_node_id":"0.0-3.0-4.0-0.0","responseType":"finish","participantID":"jlpgarv9kaz84vmbsxu64n4ltjb71wxh"},{"rt":10093,"responses":"{\"Q0\":0}","trial_type":"survey-likert","trial_index":8,"time_elapsed":103034,"internal_node_id":"0.0-3.0-4.0-0.1","responseType":"finish","participantID":"jlpgarv9kaz84vmbsxu64n4ltjb71wxh"},{"rt":2565,"stimulus":"\u003cblockquote\u003e\n  \u003cp\u003eNow an anagram will be shown to you. \u003cbr\u003e\u003cbr\u003e Press 'v' to view the anagram.\u003c/p\u003e\n\u003c/blockquote\u003e","key_press":86,"trial_type":"html-keyboard-response","trial_index":9,"time_elapsed":105602,"internal_node_id":"0.0-3.1-0.1","responseType":"finish","participantID":"jlpgarv9kaz84vmbsxu64n4ltjb71wxh"},{"rt":null,"stimulus":"\u003cb\u003e\u003ccenter\u003e\u003ch2\u003e\u003cp\u003eVLVOO\u003c/p\u003e\u003c/h2\u003e\u003c/center\u003e\u003c/b\u003e","key_press":null,"trial_type":"html-keyboard-response","trial_index":10,"time_elapsed":106103,"internal_node_id":"0.0-3.1-1.1","responseType":"finish","participantID":"jlpgarv9kaz84vmbsxu64n4ltjb71wxh"},{"rt":5137.539999966975,"response":"0.6","stimulus":"\u003cp\u003eHow long do you think it will take you to solve this anagram?\u003c/p\u003e","trial_type":"html-slider-response","trial_index":11,"time_elapsed":111242,"internal_node_id":"0.0-3.1-2.1","responseType":"finish","participantID":"jlpgarv9kaz84vmbsxu64n4ltjb71wxh"},{"rt":7759,"responses":"{\"Q0\":\"volvo\"}","trial_type":"survey-text","trial_index":12,"time_elapsed":119002,"internal_node_id":"0.0-3.1-3.1-0.1","responseType":"finish","participantID":"jlpgarv9kaz84vmbsxu64n4ltjb71wxh"},{"rt":2255,"responses":"{\"Q0\":6}","trial_type":"survey-likert","trial_index":13,"time_elapsed":121258,"internal_node_id":"0.0-3.1-4.1-0.2","responseType":"finish","participantID":"jlpgarv9kaz84vmbsxu64n4ltjb71wxh"},{"rt":2469,"responses":"{\"Q0\":1}","trial_type":"survey-likert","trial_index":14,"time_elapsed":123730,"internal_node_id":"0.0-3.1-4.1-0.3","responseType":"finish","participantID":"jlpgarv9kaz84vmbsxu64n4ltjb71wxh"},{"rt":1838,"stimulus":"\u003cblockquote\u003e\n  \u003cp\u003eNow an anagram will be shown to you. \u003cbr\u003e\u003cbr\u003e Press 'v' to view the anagram.\u003c/p\u003e\n\u003c/blockquote\u003e","key_press":86,"trial_type":"html-keyboard-response","trial_index":15,"time_elapsed":125572,"internal_node_id":"0.0-3.2-0.2","responseType":"finish","participantID":"jlpgarv9kaz84vmbsxu64n4ltjb71wxh"},{"rt":null,"stimulus":"\u003cb\u003e\u003ccenter\u003e\u003ch2\u003e\u003cp\u003eKHAOMCM\u003c/p\u003e\u003c/h2\u003e\u003c/center\u003e\u003c/b\u003e","key_press":null,"trial_type":"html-keyboard-response","trial_index":16,"time_elapsed":126074,"internal_node_id":"0.0-3.2-1.2","responseType":"finish","participantID":"jlpgarv9kaz84vmbsxu64n4ltjb71wxh"},{"rt":2976.280000002589,"response":"5.1","stimulus":"\u003cp\u003eHow long do you think it will take you to solve this anagram?\u003c/p\u003e","trial_type":"html-slider-response","trial_index":17,"time_elapsed":129051,"internal_node_id":"0.0-3.2-2.2","responseType":"finish","participantID":"jlpgarv9kaz84vmbsxu64n4ltjb71wxh"},{"rt":56391,"responses":"{\"Q0\":\"none\"}","trial_type":"survey-text","trial_index":18,"time_elapsed":185443,"internal_node_id":"0.0-3.2-3.2-0.2","responseType":"finish","participantID":"jlpgarv9kaz84vmbsxu64n4ltjb71wxh"},{"rt":4471,"responses":"{\"Q0\":\"NEXT\"}","trial_type":"survey-text","trial_index":19,"time_elapsed":193939,"internal_node_id":"0.0-3.2-3.3-0.3","responseType":"finish","participantID":"jlpgarv9kaz84vmbsxu64n4ltjb71wxh"},{"rt":2999,"responses":"{\"Q0\":0}","trial_type":"survey-likert","trial_index":20,"time_elapsed":196939,"internal_node_id":"0.0-3.2-4.2-0.4","responseType":"finish","participantID":"jlpgarv9kaz84vmbsxu64n4ltjb71wxh"},{"rt":2573,"responses":"{\"Q0\":0}","trial_type":"survey-likert","trial_index":21,"time_elapsed":199516,"internal_node_id":"0.0-3.2-4.2-0.5","responseType":"finish","participantID":"jlpgarv9kaz84vmbsxu64n4ltjb71wxh"}],"__v":0}
{"_id":{"$oid":"5d49c6616f29f700043efe00"},"data":[{"rt":32951,"responses":"{\"Q0\":\" I consent to participate\"}","trial_type":"survey-multi-choice","trial_index":0,"time_elapsed":32979,"internal_node_id":"0.0-0.0","responseType":"finish","participantID":"x3yjjaz42ufnb7sknylxqefhj06toxdf"},{"trial_type":"call-function","trial_index":1,"time_elapsed":33013,"internal_node_id":"0.0-1.0","responseType":"finish","participantID":"x3yjjaz42ufnb7sknylxqefhj06toxdf"},{"view_history":"[{\"page_index\":0,\"viewing_time\":13355},{\"page_index\":1,\"viewing_time\":13388}]","rt":26746,"trial_type":"instructions","trial_index":2,"time_elapsed":59761,"internal_node_id":"0.0-2.0","responseType":"finish","participantID":"x3yjjaz42ufnb7sknylxqefhj06toxdf"},{"rt":2213,"stimulus":"\u003cblockquote\u003e\n  \u003cp\u003eNow an anagram will be shown to you. \u003cbr\u003e\u003cbr\u003e Press 'v' to view the anagram.\u003c/p\u003e\n\u003c/blockquote\u003e","key_press":86,"trial_type":"html-keyboard-response","trial_index":3,"time_elapsed":61978,"internal_node_id":"0.0-3.0-0.0","responseType":"finish","participantID":"x3yjjaz42ufnb7sknylxqefhj06toxdf"},{"rt":null,"stimulus":"\u003cb\u003e\u003ccenter\u003e\u003ch2\u003e\u003cp\u003eTEH\u003c/p\u003e\u003c/h2\u003e\u003c/center\u003e\u003c/b\u003e","key_press":null,"trial_type":"html-keyboard-response","trial_index":4,"time_elapsed":62503,"internal_node_id":"0.0-3.0-1.0","responseType":"finish","participantID":"x3yjjaz42ufnb7sknylxqefhj06toxdf"},{"rt":5068.759999998292,"response":"0","stimulus":"\u003cp\u003eHow long do you think it will take you to solve this anagram?\u003c/p\u003e","trial_type":"html-slider-response","trial_index":5,"time_elapsed":67577,"internal_node_id":"0.0-3.0-2.0","responseType":"finish","participantID":"x3yjjaz42ufnb7sknylxqefhj06toxdf"},{"rt":3431,"responses":"{\"Q0\":\"THE\"}","trial_type":"survey-text","trial_index":6,"time_elapsed":71015,"internal_node_id":"0.0-3.0-3.0-0.0","responseType":"finish","participantID":"x3yjjaz42ufnb7sknylxqefhj06toxdf"},{"rt":6218,"responses":"{\"Q0\":3}","trial_type":"survey-likert","trial_index":7,"time_elapsed":77242,"internal_node_id":"0.0-3.0-4.0-0.0","responseType":"finish","participantID":"x3yjjaz42ufnb7sknylxqefhj06toxdf"},{"rt":13203,"responses":"{\"Q0\":6}","trial_type":"survey-likert","trial_index":8,"time_elapsed":90463,"internal_node_id":"0.0-3.0-4.0-0.1","responseType":"finish","participantID":"x3yjjaz42ufnb7sknylxqefhj06toxdf"},{"rt":1469,"stimulus":"\u003cblockquote\u003e\n  \u003cp\u003eNow an anagram will be shown to you. \u003cbr\u003e\u003cbr\u003e Press 'v' to view the anagram.\u003c/p\u003e\n\u003c/blockquote\u003e","key_press":86,"trial_type":"html-keyboard-response","trial_index":9,"time_elapsed":91948,"internal_node_id":"0.0-3.1-0.1","responseType":"finish","participantID":"x3yjjaz42ufnb7sknylxqefhj06toxdf"},{"rt":null,"stimulus":"\u003cb\u003e\u003ccenter\u003e\u003ch2\u003e\u003cp\u003eVLVOO\u003c/p\u003e\u003c/h2\u003e\u003c/center\u003e\u003c/b\u003e","key_press":null,"trial_type":"html-keyboard-response","trial_index":10,"time_elapsed":92451,"internal_node_id":"0.0-3.1-1.1","responseType":"finish","participantID":"x3yjjaz42ufnb7sknylxqefhj06toxdf"},{"rt":7397.624999997788,"response":"6","stimulus":"\u003cp\u003eHow long do you think it will take you to solve this anagram?\u003c/p\u003e","trial_type":"html-slider-response","trial_index":11,"time_elapsed":99851,"internal_node_id":"0.0-3.1-2.1","responseType":"finish","participantID":"x3yjjaz42ufnb7sknylxqefhj06toxdf"},{"rt":28996,"responses":"{\"Q0\":\"VOLVO\"}","trial_type":"survey-text","trial_index":12,"time_elapsed":128852,"internal_node_id":"0.0-3.1-3.1-0.1","responseType":"finish","participantID":"x3yjjaz42ufnb7sknylxqefhj06toxdf"},{"rt":2842,"responses":"{\"Q0\":3}","trial_type":"survey-likert","trial_index":13,"time_elapsed":131702,"internal_node_id":"0.0-3.1-4.1-0.2","responseType":"finish","participantID":"x3yjjaz42ufnb7sknylxqefhj06toxdf"},{"rt":11956,"responses":"{\"Q0\":3}","trial_type":"survey-likert","trial_index":14,"time_elapsed":143679,"internal_node_id":"0.0-3.1-4.1-0.3","responseType":"finish","participantID":"x3yjjaz42ufnb7sknylxqefhj06toxdf"},{"rt":1265,"stimulus":"\u003cblockquote\u003e\n  \u003cp\u003eNow an anagram will be shown to you. \u003cbr\u003e\u003cbr\u003e Press 'v' to view the anagram.\u003c/p\u003e\n\u003c/blockquote\u003e","key_press":86,"trial_type":"html-keyboard-response","trial_index":15,"time_elapsed":144958,"internal_node_id":"0.0-3.2-0.2","responseType":"finish","participantID":"x3yjjaz42ufnb7sknylxqefhj06toxdf"},{"rt":null,"stimulus":"\u003cb\u003e\u003ccenter\u003e\u003ch2\u003e\u003cp\u003eKHAOMCM\u003c/p\u003e\u003c/h2\u003e\u003c/center\u003e\u003c/b\u003e","key_press":null,"trial_type":"html-keyboard-response","trial_index":16,"time_elapsed":145461,"internal_node_id":"0.0-3.2-1.2","responseType":"finish","participantID":"x3yjjaz42ufnb7sknylxqefhj06toxdf"},{"rt":3672.4250000006577,"response":"6","stimulus":"\u003cp\u003eHow long do you think it will take you to solve this anagram?\u003c/p\u003e","trial_type":"html-slider-response","trial_index":17,"time_elapsed":149136,"internal_node_id":"0.0-3.2-2.2","responseType":"finish","participantID":"x3yjjaz42ufnb7sknylxqefhj06toxdf"},{"rt":100100,"responses":"{\"Q0\":\"HAMMOCK\"}","trial_type":"survey-text","trial_index":18,"time_elapsed":249241,"internal_node_id":"0.0-3.2-3.2-0.2","responseType":"finish","participantID":"x3yjjaz42ufnb7sknylxqefhj06toxdf"},{"rt":2253,"responses":"{\"Q0\":3}","trial_type":"survey-likert","trial_index":19,"time_elapsed":251499,"internal_node_id":"0.0-3.2-4.2-0.4","responseType":"finish","participantID":"x3yjjaz42ufnb7sknylxqefhj06toxdf"},{"rt":4699,"responses":"{\"Q0\":3}","trial_type":"survey-likert","trial_index":20,"time_elapsed":256217,"internal_node_id":"0.0-3.2-4.2-0.5","responseType":"finish","participantID":"x3yjjaz42ufnb7sknylxqefhj06toxdf"}],"__v":0}
{"_id":{"$oid":"5d49c6616f29f700043efe01"},"data":[{"rt":1853,"responses":"{\"Q0\":\" I consent to participate\"}","trial_type":"survey-multi-choice","trial_index":0,"time_elapsed":1859,"internal_node_id":"0.0-0.0","responseType":"finish","participantID":"7px6vpr1njogr7sfdvayszb99yl8kj4z"},{"trial_type":"call-function","trial_index":1,"time_elapsed":1864,"internal_node_id":"0.0-1.0","responseType":"finish","participantID":"7px6vpr1njogr7sfdvayszb99yl8kj4z"},{"view_history":"[{\"page_index\":0,\"viewing_time\":5178},{\"page_index\":1,\"viewing_time\":5103}]","rt":10282,"trial_type":"instructions","trial_index":2,"time_elapsed":12146,"internal_node_id":"0.0-2.0","responseType":"finish","participantID":"7px6vpr1njogr7sfdvayszb99yl8kj4z"},{"rt":1167,"stimulus":"\u003cblockquote\u003e\n  \u003cp\u003eNow an anagram will be shown to you. \u003cbr\u003e\u003cbr\u003e Press 'v' to view the anagram.\u003c/p\u003e\n\u003c/blockquote\u003e","key_press":86,"trial_type":"html-keyboard-response","trial_index":3,"time_elapsed":13314,"internal_node_id":"0.0-3.0-0.0","responseType":"finish","participantID":"7px6vpr1njogr7sfdvayszb99yl8kj4z"},{"rt":null,"stimulus":"\u003cb\u003e\u003ccenter\u003e\u003ch2\u003e\u003cp\u003eTEH\u003c/p\u003e\u003c/h2\u003e\u003c/center\u003e\u003c/b\u003e","key_press":null,"trial_type":"html-keyboard-response","trial_index":4,"time_elapsed":13823,"internal_node_id":"0.0-3.0-1.0","responseType":"finish","participantID":"7px6vpr1njogr7sfdvayszb99yl8kj4z"},{"rt":3176.9350001122802,"response":"0","stimulus":"\u003cp\u003eHow long do you think it will take you to solve this anagram?\u003c/p\u003e","trial_type":"html-slider-response","trial_index":5,"time_elapsed":17001,"internal_node_id":"0.0-3.0-2.0","responseType":"finish","participantID":"7px6vpr1njogr7sfdvayszb99yl8kj4z"},{"rt":2679,"responses":"{\"Q0\":\"the\"}","trial_type":"survey-text","trial_index":6,"time_elapsed":19682,"internal_node_id":"0.0-3.0-3.0-0.0","responseType":"finish","participantID":"7px6vpr1njogr7sfdvayszb99yl8kj4z"},{"rt":2062,"responses":"{\"Q0\":6}","trial_type":"survey-likert","trial_index":7,"time_elapsed":21748,"internal_node_id":"0.0-3.0-4.0-0.0","responseType":"finish","participantID":"7px6vpr1njogr7sfdvayszb99yl8kj4z"},{"rt":6949,"responses":"{\"Q0\":1}","trial_type":"survey-likert","trial_index":8,"time_elapsed":28699,"internal_node_id":"0.0-3.0-4.0-0.1","responseType":"finish","participantID":"7px6vpr1njogr7sfdvayszb99yl8kj4z"},{"rt":6094,"stimulus":"\u003cblockquote\u003e\n  \u003cp\u003eNow an anagram will be shown to you. \u003cbr\u003e\u003cbr\u003e Press 'v' to view the anagram.\u003c/p\u003e\n\u003c/blockquote\u003e","key_press":86,"trial_type":"html-keyboard-response","trial_index":9,"time_elapsed":34794,"internal_node_id":"0.0-3.1-0.1","responseType":"finish","participantID":"7px6vpr1njogr7sfdvayszb99yl8kj4z"},{"rt":null,"stimulus":"\u003cb\u003e\u003ccenter\u003e\u003ch2\u003e\u003cp\u003eVLVOO\u003c/p\u003e\u003c/h2\u003e\u003c/center\u003e\u003c/b\u003e","key_press":null,"trial_type":"html-keyboard-response","trial_index":10,"time_elapsed":35297,"internal_node_id":"0.0-3.1-1.1","responseType":"finish","participantID":"7px6vpr1njogr7sfdvayszb99yl8kj4z"},{"rt":7822.914999909699,"response":"2.9","stimulus":"\u003cp\u003eHow long do you think it will take you to solve this anagram?\u003c/p\u003e","trial_type":"html-slider-response","trial_index":11,"time_elapsed":43121,"internal_node_id":"0.0-3.1-2.1","responseType":"finish","participantID":"7px6vpr1njogr7sfdvayszb99yl8kj4z"},{"rt":5432,"responses":"{\"Q0\":\"VOLVO\"}","trial_type":"survey-text","trial_index":12,"time_elapsed":48554,"internal_node_id":"0.0-3.1-3.1-0.1","responseType":"finish","participantID":"7px6vpr1njogr7sfdvayszb99yl8kj4z"},{"rt":1510,"responses":"{\"Q0\":6}","trial_type":"survey-likert","trial_index":13,"time_elapsed":50066,"internal_node_id":"0.0-3.1-4.1-0.2","responseType":"finish","participantID":"7px6vpr1njogr7sfdvayszb99yl8kj4z"},{"rt":1782,"responses":"{\"Q0\":0}","trial_type":"survey-likert","trial_index":14,"time_elapsed":51850,"internal_node_id":"0.0-3.1-4.1-0.3","responseType":"finish","participantID":"7px6vpr1njogr7sfdvayszb99yl8kj4z"},{"rt":775,"stimulus":"\u003cblockquote\u003e\n  \u003cp\u003eNow an anagram will be shown to you. \u003cbr\u003e\u003cbr\u003e Press 'v' to view the anagram.\u003c/p\u003e\n\u003c/blockquote\u003e","key_press":86,"trial_type":"html-keyboard-response","trial_index":15,"time_elapsed":52626,"internal_node_id":"0.0-3.2-0.2","responseType":"finish","participantID":"7px6vpr1njogr7sfdvayszb99yl8kj4z"},{"rt":null,"stimulus":"\u003cb\u003e\u003ccenter\u003e\u003ch2\u003e\u003cp\u003eKHAOMCM\u003c/p\u003e\u003c/h2\u003e\u003c/center\u003e\u003c/b\u003e","key_press":null,"trial_type":"html-keyboard-response","trial_index":16,"time_elapsed":53128,"internal_node_id":"0.0-3.2-1.2","responseType":"finish","participantID":"7px6vpr1njogr7sfdvayszb99yl8kj4z"},{"rt":3928.950000088662,"response":"3.3","stimulus":"\u003cp\u003eHow long do you think it will take you to solve this anagram?\u003c/p\u003e","trial_type":"html-slider-response","trial_index":17,"time_elapsed":57058,"internal_node_id":"0.0-3.2-2.2","responseType":"finish","participantID":"7px6vpr1njogr7sfdvayszb99yl8kj4z"},{"rt":17255,"responses":"{\"Q0\":\"HAMMOCK\"}","trial_type":"survey-text","trial_index":18,"time_elapsed":74315,"internal_node_id":"0.0-3.2-3.2-0.2","responseType":"finish","participantID":"7px6vpr1njogr7sfdvayszb99yl8kj4z"},{"rt":1079,"responses":"{\"Q0\":6}","trial_type":"survey-likert","trial_index":19,"time_elapsed":75395,"internal_node_id":"0.0-3.2-4.2-0.4","responseType":"finish","participantID":"7px6vpr1njogr7sfdvayszb99yl8kj4z"},{"rt":8950,"responses":"{\"Q0\":0}","trial_type":"survey-likert","trial_index":20,"time_elapsed":84347,"internal_node_id":"0.0-3.2-4.2-0.5","responseType":"finish","participantID":"7px6vpr1njogr7sfdvayszb99yl8kj4z"}],"__v":0}
{"_id":{"$oid":"5d49c6826f29f700043efe02"},"data":{"responseType":"start","participantID":"hp5xss83kqy3sxc6kgldsl3l5yrswb2g"},"__v":0}
