[{
  "_id": {
    "$oid": "61ec557b5de54e0004a9d7da"
  },
  "data": {
    "responseType": "start",
    "participantID": "314m49syo3g959wyfm39a86jtwzk5fql",
    "problems_seen": [
      "What day follows the day before yesterday if two days from now will be Sunday?",
      "Solve this anagram: AALRYS",
      "Alex and Casey are blood relatives of Bobbie. However, Alex and Casey are not blood relatives at all. How is this possible?"
    ]
  },
  "__v": 0
},{
  "_id": {
    "$oid": "61ec56ad5de54e0004a9d7db"
  },
  "data": [
    {
      "rt": 5944,
      "responses": "{\"Q0\":\" I consent to participate\"}",
      "trial_type": "survey-multi-choice",
      "trial_index": 0,
      "time_elapsed": 5958,
      "internal_node_id": "0.0-0.0",
      "responseType": "finish",
      "participantID": "314m49syo3g959wyfm39a86jtwzk5fql",
      "problems_seen": [
        "What day follows the day before yesterday if two days from now will be Sunday?",
        "Solve this anagram: AALRYS",
        "Alex and Casey are blood relatives of Bobbie. However, Alex and Casey are not blood relatives at all. How is this possible?"
      ]
    },
    {
      "trial_type": "call-function",
      "trial_index": 1,
      "time_elapsed": 5970,
      "internal_node_id": "0.0-1.0",
      "responseType": "finish",
      "participantID": "314m49syo3g959wyfm39a86jtwzk5fql",
      "problems_seen": [
        "What day follows the day before yesterday if two days from now will be Sunday?",
        "Solve this anagram: AALRYS",
        "Alex and Casey are blood relatives of Bobbie. However, Alex and Casey are not blood relatives at all. How is this possible?"
      ]
    },
    {
      "view_history": "[{\"page_index\":0,\"viewing_time\":4461},{\"page_index\":1,\"viewing_time\":8309}]",
      "rt": 12772,
      "trial_type": "instructions",
      "trial_index": 2,
      "time_elapsed": 18742,
      "internal_node_id": "0.0-2.0",
      "responseType": "finish",
      "participantID": "314m49syo3g959wyfm39a86jtwzk5fql",
      "problems_seen": [
        "What day follows the day before yesterday if two days from now will be Sunday?",
        "Solve this anagram: AALRYS",
        "Alex and Casey are blood relatives of Bobbie. However, Alex and Casey are not blood relatives at all. How is this possible?"
      ]
    },
    {
      "rt": 4361,
      "responses": "{\"Q0\":\"3 problems\"}",
      "trial_type": "survey-multi-choice",
      "trial_index": 3,
      "time_elapsed": 23108,
      "internal_node_id": "0.0-3.0",
      "responseType": "finish",
      "participantID": "314m49syo3g959wyfm39a86jtwzk5fql",
      "problems_seen": [
        "What day follows the day before yesterday if two days from now will be Sunday?",
        "Solve this anagram: AALRYS",
        "Alex and Casey are blood relatives of Bobbie. However, Alex and Casey are not blood relatives at all. How is this possible?"
      ]
    },
    {
      "rt": 3897,
      "stimulus": "<blockquote>\n  <p>Now a problem will be shown to you. <br><br> Press 'v' to view the problem.</p>\n</blockquote>",
      "key_press": 86,
      "trial_type": "html-keyboard-response",
      "trial_index": 4,
      "time_elapsed": 27013,
      "internal_node_id": "0.0-4.0-0.0",
      "responseType": "finish",
      "participantID": "314m49syo3g959wyfm39a86jtwzk5fql",
      "problems_seen": [
        "What day follows the day before yesterday if two days from now will be Sunday?",
        "Solve this anagram: AALRYS",
        "Alex and Casey are blood relatives of Bobbie. However, Alex and Casey are not blood relatives at all. How is this possible?"
      ]
    },
    {
      "rt": 10016,
      "responses": "{\"Q0\":\"\"}",
      "trial_type": "survey-text",
      "trial_index": 5,
      "time_elapsed": 37065,
      "internal_node_id": "0.0-4.0-1.0-0.0",
      "responseType": "finish",
      "participantID": "314m49syo3g959wyfm39a86jtwzk5fql",
      "problems_seen": [
        "What day follows the day before yesterday if two days from now will be Sunday?",
        "Solve this anagram: AALRYS",
        "Alex and Casey are blood relatives of Bobbie. However, Alex and Casey are not blood relatives at all. How is this possible?"
      ]
    },
    {
      "rt": 9796.100000023842,
      "response": "9",
      "stimulus": "<center><p>How close are you towards solving this problem?</p></center>",
      "trial_type": "html-slider-response",
      "trial_index": 6,
      "time_elapsed": 46865,
      "internal_node_id": "0.0-4.0-1.0-1.0",
      "responseType": "finish",
      "participantID": "314m49syo3g959wyfm39a86jtwzk5fql",
      "problems_seen": [
        "What day follows the day before yesterday if two days from now will be Sunday?",
        "Solve this anagram: AALRYS",
        "Alex and Casey are blood relatives of Bobbie. However, Alex and Casey are not blood relatives at all. How is this possible?"
      ]
    },
    {
      "rt": 10012,
      "responses": "{\"Q0\":\"\"}",
      "trial_type": "survey-text",
      "trial_index": 7,
      "time_elapsed": 56882,
      "internal_node_id": "0.0-4.0-1.1-0.1",
      "responseType": "finish",
      "participantID": "314m49syo3g959wyfm39a86jtwzk5fql",
      "problems_seen": [
        "What day follows the day before yesterday if two days from now will be Sunday?",
        "Solve this anagram: AALRYS",
        "Alex and Casey are blood relatives of Bobbie. However, Alex and Casey are not blood relatives at all. How is this possible?"
      ]
    },
    {
      "rt": 6069.599999964237,
      "response": "49",
      "stimulus": "<center><p>How close are you towards solving this problem?</p></center>",
      "trial_type": "html-slider-response",
      "trial_index": 8,
      "time_elapsed": 62954,
      "internal_node_id": "0.0-4.0-1.1-1.1",
      "responseType": "finish",
      "participantID": "314m49syo3g959wyfm39a86jtwzk5fql",
      "problems_seen": [
        "What day follows the day before yesterday if two days from now will be Sunday?",
        "Solve this anagram: AALRYS",
        "Alex and Casey are blood relatives of Bobbie. However, Alex and Casey are not blood relatives at all. How is this possible?"
      ]
    },
    {
      "rt": 10008,
      "responses": "{\"Q0\":\"\"}",
      "trial_type": "survey-text",
      "trial_index": 9,
      "time_elapsed": 72964,
      "internal_node_id": "0.0-4.0-1.2-0.2",
      "responseType": "finish",
      "participantID": "314m49syo3g959wyfm39a86jtwzk5fql",
      "problems_seen": [
        "What day follows the day before yesterday if two days from now will be Sunday?",
        "Solve this anagram: AALRYS",
        "Alex and Casey are blood relatives of Bobbie. However, Alex and Casey are not blood relatives at all. How is this possible?"
      ]
    },
    {
      "rt": 4841.199999988079,
      "response": "84",
      "stimulus": "<center><p>How close are you towards solving this problem?</p></center>",
      "trial_type": "html-slider-response",
      "trial_index": 10,
      "time_elapsed": 77807,
      "internal_node_id": "0.0-4.0-1.2-1.2",
      "responseType": "finish",
      "participantID": "314m49syo3g959wyfm39a86jtwzk5fql",
      "problems_seen": [
        "What day follows the day before yesterday if two days from now will be Sunday?",
        "Solve this anagram: AALRYS",
        "Alex and Casey are blood relatives of Bobbie. However, Alex and Casey are not blood relatives at all. How is this possible?"
      ]
    },
    {
      "rt": 10002,
      "responses": "{\"Q0\":\"\"}",
      "trial_type": "survey-text",
      "trial_index": 11,
      "time_elapsed": 87814,
      "internal_node_id": "0.0-4.0-1.3-0.3",
      "responseType": "finish",
      "participantID": "314m49syo3g959wyfm39a86jtwzk5fql",
      "problems_seen": [
        "What day follows the day before yesterday if two days from now will be Sunday?",
        "Solve this anagram: AALRYS",
        "Alex and Casey are blood relatives of Bobbie. However, Alex and Casey are not blood relatives at all. How is this possible?"
      ]
    },
    {
      "rt": 7213.399999976158,
      "response": "100",
      "stimulus": "<center><p>How close are you towards solving this problem?</p></center>",
      "trial_type": "html-slider-response",
      "trial_index": 12,
      "time_elapsed": 95030,
      "internal_node_id": "0.0-4.0-1.3-1.3",
      "responseType": "finish",
      "participantID": "314m49syo3g959wyfm39a86jtwzk5fql",
      "problems_seen": [
        "What day follows the day before yesterday if two days from now will be Sunday?",
        "Solve this anagram: AALRYS",
        "Alex and Casey are blood relatives of Bobbie. However, Alex and Casey are not blood relatives at all. How is this possible?"
      ]
    },
    {
      "rt": 6125,
      "responses": "{\"Q0\":\"Friday\"}",
      "trial_type": "survey-text",
      "trial_index": 13,
      "time_elapsed": 101157,
      "internal_node_id": "0.0-4.0-1.4-0.4",
      "responseType": "finish",
      "participantID": "314m49syo3g959wyfm39a86jtwzk5fql",
      "problems_seen": [
        "What day follows the day before yesterday if two days from now will be Sunday?",
        "Solve this anagram: AALRYS",
        "Alex and Casey are blood relatives of Bobbie. However, Alex and Casey are not blood relatives at all. How is this possible?"
      ]
    },
    {
      "rt": 4546.199999988079,
      "response": "100",
      "stimulus": "<center><p>How close are you towards solving this problem?</p></center>",
      "trial_type": "html-slider-response",
      "trial_index": 14,
      "time_elapsed": 105706,
      "internal_node_id": "0.0-4.0-1.4-1.4",
      "responseType": "finish",
      "participantID": "314m49syo3g959wyfm39a86jtwzk5fql",
      "problems_seen": [
        "What day follows the day before yesterday if two days from now will be Sunday?",
        "Solve this anagram: AALRYS",
        "Alex and Casey are blood relatives of Bobbie. However, Alex and Casey are not blood relatives at all. How is this possible?"
      ]
    },
    {
      "rt": 9856,
      "responses": "{\"Q0\":\"DONE\"}",
      "trial_type": "survey-text",
      "trial_index": 15,
      "time_elapsed": 115563,
      "internal_node_id": "0.0-4.0-1.5-0.5",
      "responseType": "finish",
      "participantID": "314m49syo3g959wyfm39a86jtwzk5fql",
      "problems_seen": [
        "What day follows the day before yesterday if two days from now will be Sunday?",
        "Solve this anagram: AALRYS",
        "Alex and Casey are blood relatives of Bobbie. However, Alex and Casey are not blood relatives at all. How is this possible?"
      ]
    },
    {
      "rt": 3042.7000000476837,
      "response": "100",
      "stimulus": "<center><p>How close are you towards solving this problem?</p></center>",
      "trial_type": "html-slider-response",
      "trial_index": 16,
      "time_elapsed": 118602,
      "internal_node_id": "0.0-4.0-1.5-1.5",
      "responseType": "finish",
      "participantID": "314m49syo3g959wyfm39a86jtwzk5fql",
      "problems_seen": [
        "What day follows the day before yesterday if two days from now will be Sunday?",
        "Solve this anagram: AALRYS",
        "Alex and Casey are blood relatives of Bobbie. However, Alex and Casey are not blood relatives at all. How is this possible?"
      ]
    },
    {
      "rt": 6780,
      "responses": "{\"Q0\":\"Friday\"}",
      "trial_type": "survey-text",
      "trial_index": 17,
      "time_elapsed": 125384,
      "internal_node_id": "0.0-4.0-2.0",
      "responseType": "finish",
      "participantID": "314m49syo3g959wyfm39a86jtwzk5fql",
      "problems_seen": [
        "What day follows the day before yesterday if two days from now will be Sunday?",
        "Solve this anagram: AALRYS",
        "Alex and Casey are blood relatives of Bobbie. However, Alex and Casey are not blood relatives at all. How is this possible?"
      ]
    },
    {
      "rt": 66231,
      "responses": "{\"Q0\":4,\"Q1\":3,\"Q2\":1}",
      "trial_type": "survey-likert",
      "trial_index": 18,
      "time_elapsed": 191618,
      "internal_node_id": "0.0-4.0-3.0-0.0",
      "responseType": "finish",
      "participantID": "314m49syo3g959wyfm39a86jtwzk5fql",
      "problems_seen": [
        "What day follows the day before yesterday if two days from now will be Sunday?",
        "Solve this anagram: AALRYS",
        "Alex and Casey are blood relatives of Bobbie. However, Alex and Casey are not blood relatives at all. How is this possible?"
      ]
    },
    {
      "rt": 1571,
      "stimulus": "<blockquote>\n  <p>Now a problem will be shown to you. <br><br> Press 'v' to view the problem.</p>\n</blockquote>",
      "key_press": 86,
      "trial_type": "html-keyboard-response",
      "trial_index": 19,
      "time_elapsed": 193199,
      "internal_node_id": "0.0-4.1-0.1",
      "responseType": "finish",
      "participantID": "314m49syo3g959wyfm39a86jtwzk5fql",
      "problems_seen": [
        "What day follows the day before yesterday if two days from now will be Sunday?",
        "Solve this anagram: AALRYS",
        "Alex and Casey are blood relatives of Bobbie. However, Alex and Casey are not blood relatives at all. How is this possible?"
      ]
    },
    {
      "rt": 8444,
      "responses": "{\"Q0\":\"DONE\"}",
      "trial_type": "survey-text",
      "trial_index": 20,
      "time_elapsed": 201671,
      "internal_node_id": "0.0-4.1-1.6-0.6",
      "responseType": "finish",
      "participantID": "314m49syo3g959wyfm39a86jtwzk5fql",
      "problems_seen": [
        "What day follows the day before yesterday if two days from now will be Sunday?",
        "Solve this anagram: AALRYS",
        "Alex and Casey are blood relatives of Bobbie. However, Alex and Casey are not blood relatives at all. How is this possible?"
      ]
    },
    {
      "rt": 3420.5,
      "response": "1",
      "stimulus": "<center><p>How close are you towards solving this problem?</p></center>",
      "trial_type": "html-slider-response",
      "trial_index": 21,
      "time_elapsed": 205094,
      "internal_node_id": "0.0-4.1-1.6-1.6",
      "responseType": "finish",
      "participantID": "314m49syo3g959wyfm39a86jtwzk5fql",
      "problems_seen": [
        "What day follows the day before yesterday if two days from now will be Sunday?",
        "Solve this anagram: AALRYS",
        "Alex and Casey are blood relatives of Bobbie. However, Alex and Casey are not blood relatives at all. How is this possible?"
      ]
    },
    {
      "rt": 1864,
      "responses": "{\"Q0\":\"\"}",
      "trial_type": "survey-text",
      "trial_index": 22,
      "time_elapsed": 206961,
      "internal_node_id": "0.0-4.1-2.1",
      "responseType": "finish",
      "participantID": "314m49syo3g959wyfm39a86jtwzk5fql",
      "problems_seen": [
        "What day follows the day before yesterday if two days from now will be Sunday?",
        "Solve this anagram: AALRYS",
        "Alex and Casey are blood relatives of Bobbie. However, Alex and Casey are not blood relatives at all. How is this possible?"
      ]
    },
    {
      "rt": 14443,
      "responses": "{\"Q0\":0,\"Q1\":6,\"Q2\":0}",
      "trial_type": "survey-likert",
      "trial_index": 23,
      "time_elapsed": 221407,
      "internal_node_id": "0.0-4.1-3.1-0.1",
      "responseType": "finish",
      "participantID": "314m49syo3g959wyfm39a86jtwzk5fql",
      "problems_seen": [
        "What day follows the day before yesterday if two days from now will be Sunday?",
        "Solve this anagram: AALRYS",
        "Alex and Casey are blood relatives of Bobbie. However, Alex and Casey are not blood relatives at all. How is this possible?"
      ]
    },
    {
      "rt": 1559,
      "stimulus": "<blockquote>\n  <p>Now a problem will be shown to you. <br><br> Press 'v' to view the problem.</p>\n</blockquote>",
      "key_press": 86,
      "trial_type": "html-keyboard-response",
      "trial_index": 24,
      "time_elapsed": 222976,
      "internal_node_id": "0.0-4.2-0.2",
      "responseType": "finish",
      "participantID": "314m49syo3g959wyfm39a86jtwzk5fql",
      "problems_seen": [
        "What day follows the day before yesterday if two days from now will be Sunday?",
        "Solve this anagram: AALRYS",
        "Alex and Casey are blood relatives of Bobbie. However, Alex and Casey are not blood relatives at all. How is this possible?"
      ]
    },
    {
      "rt": 10002,
      "responses": "{\"Q0\":\"\"}",
      "trial_type": "survey-text",
      "trial_index": 25,
      "time_elapsed": 232984,
      "internal_node_id": "0.0-4.2-1.7-0.7",
      "responseType": "finish",
      "participantID": "314m49syo3g959wyfm39a86jtwzk5fql",
      "problems_seen": [
        "What day follows the day before yesterday if two days from now will be Sunday?",
        "Solve this anagram: AALRYS",
        "Alex and Casey are blood relatives of Bobbie. However, Alex and Casey are not blood relatives at all. How is this possible?"
      ]
    },
    {
      "rt": 2934.199999988079,
      "response": "2",
      "stimulus": "<center><p>How close are you towards solving this problem?</p></center>",
      "trial_type": "html-slider-response",
      "trial_index": 26,
      "time_elapsed": 235921,
      "internal_node_id": "0.0-4.2-1.7-1.7",
      "responseType": "finish",
      "participantID": "314m49syo3g959wyfm39a86jtwzk5fql",
      "problems_seen": [
        "What day follows the day before yesterday if two days from now will be Sunday?",
        "Solve this anagram: AALRYS",
        "Alex and Casey are blood relatives of Bobbie. However, Alex and Casey are not blood relatives at all. How is this possible?"
      ]
    },
    {
      "rt": 10018,
      "responses": "{\"Q0\":\"\"}",
      "trial_type": "survey-text",
      "trial_index": 27,
      "time_elapsed": 245942,
      "internal_node_id": "0.0-4.2-1.8-0.8",
      "responseType": "finish",
      "participantID": "314m49syo3g959wyfm39a86jtwzk5fql",
      "problems_seen": [
        "What day follows the day before yesterday if two days from now will be Sunday?",
        "Solve this anagram: AALRYS",
        "Alex and Casey are blood relatives of Bobbie. However, Alex and Casey are not blood relatives at all. How is this possible?"
      ]
    },
    {
      "rt": 6163.299999952316,
      "response": "0",
      "stimulus": "<center><p>How close are you towards solving this problem?</p></center>",
      "trial_type": "html-slider-response",
      "trial_index": 28,
      "time_elapsed": 252107,
      "internal_node_id": "0.0-4.2-1.8-1.8",
      "responseType": "finish",
      "participantID": "314m49syo3g959wyfm39a86jtwzk5fql",
      "problems_seen": [
        "What day follows the day before yesterday if two days from now will be Sunday?",
        "Solve this anagram: AALRYS",
        "Alex and Casey are blood relatives of Bobbie. However, Alex and Casey are not blood relatives at all. How is this possible?"
      ]
    },
    {
      "rt": 10012,
      "responses": "{\"Q0\":\"\"}",
      "trial_type": "survey-text",
      "trial_index": 29,
      "time_elapsed": 262136,
      "internal_node_id": "0.0-4.2-1.9-0.9",
      "responseType": "finish",
      "participantID": "314m49syo3g959wyfm39a86jtwzk5fql",
      "problems_seen": [
        "What day follows the day before yesterday if two days from now will be Sunday?",
        "Solve this anagram: AALRYS",
        "Alex and Casey are blood relatives of Bobbie. However, Alex and Casey are not blood relatives at all. How is this possible?"
      ]
    },
    {
      "rt": 15151.800000011921,
      "response": "42",
      "stimulus": "<center><p>How close are you towards solving this problem?</p></center>",
      "trial_type": "html-slider-response",
      "trial_index": 30,
      "time_elapsed": 277289,
      "internal_node_id": "0.0-4.2-1.9-1.9",
      "responseType": "finish",
      "participantID": "314m49syo3g959wyfm39a86jtwzk5fql",
      "problems_seen": [
        "What day follows the day before yesterday if two days from now will be Sunday?",
        "Solve this anagram: AALRYS",
        "Alex and Casey are blood relatives of Bobbie. However, Alex and Casey are not blood relatives at all. How is this possible?"
      ]
    },
    {
      "rt": 10004,
      "responses": "{\"Q0\":\"\"}",
      "trial_type": "survey-text",
      "trial_index": 31,
      "time_elapsed": 287296,
      "internal_node_id": "0.0-4.2-1.10-0.10",
      "responseType": "finish",
      "participantID": "314m49syo3g959wyfm39a86jtwzk5fql",
      "problems_seen": [
        "What day follows the day before yesterday if two days from now will be Sunday?",
        "Solve this anagram: AALRYS",
        "Alex and Casey are blood relatives of Bobbie. However, Alex and Casey are not blood relatives at all. How is this possible?"
      ]
    },
    {
      "rt": 9088.299999952316,
      "response": "31",
      "stimulus": "<center><p>How close are you towards solving this problem?</p></center>",
      "trial_type": "html-slider-response",
      "trial_index": 32,
      "time_elapsed": 296386,
      "internal_node_id": "0.0-4.2-1.10-1.10",
      "responseType": "finish",
      "participantID": "314m49syo3g959wyfm39a86jtwzk5fql",
      "problems_seen": [
        "What day follows the day before yesterday if two days from now will be Sunday?",
        "Solve this anagram: AALRYS",
        "Alex and Casey are blood relatives of Bobbie. However, Alex and Casey are not blood relatives at all. How is this possible?"
      ]
    },
    {
      "rt": 3603,
      "responses": "{\"Q0\":\"DONE\"}",
      "trial_type": "survey-text",
      "trial_index": 33,
      "time_elapsed": 299991,
      "internal_node_id": "0.0-4.2-1.11-0.11",
      "responseType": "finish",
      "participantID": "314m49syo3g959wyfm39a86jtwzk5fql",
      "problems_seen": [
        "What day follows the day before yesterday if two days from now will be Sunday?",
        "Solve this anagram: AALRYS",
        "Alex and Casey are blood relatives of Bobbie. However, Alex and Casey are not blood relatives at all. How is this possible?"
      ]
    },
    {
      "rt": 2788.300000011921,
      "response": "12",
      "stimulus": "<center><p>How close are you towards solving this problem?</p></center>",
      "trial_type": "html-slider-response",
      "trial_index": 34,
      "time_elapsed": 302781,
      "internal_node_id": "0.0-4.2-1.11-1.11",
      "responseType": "finish",
      "participantID": "314m49syo3g959wyfm39a86jtwzk5fql",
      "problems_seen": [
        "What day follows the day before yesterday if two days from now will be Sunday?",
        "Solve this anagram: AALRYS",
        "Alex and Casey are blood relatives of Bobbie. However, Alex and Casey are not blood relatives at all. How is this possible?"
      ]
    },
    {
      "rt": 1267,
      "responses": "{\"Q0\":\"\"}",
      "trial_type": "survey-text",
      "trial_index": 35,
      "time_elapsed": 304050,
      "internal_node_id": "0.0-4.2-2.2",
      "responseType": "finish",
      "participantID": "314m49syo3g959wyfm39a86jtwzk5fql",
      "problems_seen": [
        "What day follows the day before yesterday if two days from now will be Sunday?",
        "Solve this anagram: AALRYS",
        "Alex and Casey are blood relatives of Bobbie. However, Alex and Casey are not blood relatives at all. How is this possible?"
      ]
    },
    {
      "rt": 7757,
      "responses": "{\"Q0\":0,\"Q1\":6,\"Q2\":0}",
      "trial_type": "survey-likert",
      "trial_index": 36,
      "time_elapsed": 311810,
      "internal_node_id": "0.0-4.2-3.2-0.2",
      "responseType": "finish",
      "participantID": "314m49syo3g959wyfm39a86jtwzk5fql",
      "problems_seen": [
        "What day follows the day before yesterday if two days from now will be Sunday?",
        "Solve this anagram: AALRYS",
        "Alex and Casey are blood relatives of Bobbie. However, Alex and Casey are not blood relatives at all. How is this possible?"
      ]
    }
  ],
  "__v": 0
},{
  "_id": {
    "$oid": "61ec580f5de54e0004a9d7dc"
  },
  "data": {
    "responseType": "start",
    "participantID": "e2qj4x1m364kmzzdxlxqwwlmdnepj4th",
    "problems_seen": [
      "Solve this anagram: AALRYS",
      "The following verse spells out a word. I am a food for you and me. My first letter is in pat but not in tar. My second letter is in stream but not in smart. My third letter is in giraffe but not in fridge. My fourth letter is in treat but not in absent. What is the word that this verse described?",
      "Joe Fan has no psychic powers but he can tell you the score of any football game before it starts. How?"
    ]
  },
  "__v": 0
},{
  "_id": {
    "$oid": "61ec590f5de54e0004a9d7dd"
  },
  "data": {
    "responseType": "start",
    "participantID": "53w0r1qz5z1x08ovt3v1415fraulchmc",
    "problems_seen": [
      "What day follows the day before yesterday if two days from now will be Sunday?",
      "A man is reading a book when the lights go off but even although the room is pitch dark the man goes on reading. How?",
      "Solve this anagram: AYKAWLJ"
    ]
  },
  "__v": 0
},{
  "_id": {
    "$oid": "61ec593a5de54e0004a9d7de"
  },
  "data": [
    {
      "rt": 4551,
      "responses": "{\"Q0\":\" I consent to participate\"}",
      "trial_type": "survey-multi-choice",
      "trial_index": 0,
      "time_elapsed": 4555,
      "internal_node_id": "0.0-0.0",
      "responseType": "finish",
      "participantID": "e2qj4x1m364kmzzdxlxqwwlmdnepj4th",
      "problems_seen": [
        "Solve this anagram: AALRYS",
        "The following verse spells out a word. I am a food for you and me. My first letter is in pat but not in tar. My second letter is in stream but not in smart. My third letter is in giraffe but not in fridge. My fourth letter is in treat but not in absent. What is the word that this verse described?",
        "Joe Fan has no psychic powers but he can tell you the score of any football game before it starts. How?"
      ]
    },
    {
      "trial_type": "call-function",
      "trial_index": 1,
      "time_elapsed": 4557,
      "internal_node_id": "0.0-1.0",
      "responseType": "finish",
      "participantID": "e2qj4x1m364kmzzdxlxqwwlmdnepj4th",
      "problems_seen": [
        "Solve this anagram: AALRYS",
        "The following verse spells out a word. I am a food for you and me. My first letter is in pat but not in tar. My second letter is in stream but not in smart. My third letter is in giraffe but not in fridge. My fourth letter is in treat but not in absent. What is the word that this verse described?",
        "Joe Fan has no psychic powers but he can tell you the score of any football game before it starts. How?"
      ]
    },
    {
      "view_history": "[{\"page_index\":0,\"viewing_time\":5205},{\"page_index\":1,\"viewing_time\":6543}]",
      "rt": 11749,
      "trial_type": "instructions",
      "trial_index": 2,
      "time_elapsed": 16306,
      "internal_node_id": "0.0-2.0",
      "responseType": "finish",
      "participantID": "e2qj4x1m364kmzzdxlxqwwlmdnepj4th",
      "problems_seen": [
        "Solve this anagram: AALRYS",
        "The following verse spells out a word. I am a food for you and me. My first letter is in pat but not in tar. My second letter is in stream but not in smart. My third letter is in giraffe but not in fridge. My fourth letter is in treat but not in absent. What is the word that this verse described?",
        "Joe Fan has no psychic powers but he can tell you the score of any football game before it starts. How?"
      ]
    },
    {
      "rt": 11703,
      "responses": "{\"Q0\":\"3 problems\"}",
      "trial_type": "survey-multi-choice",
      "trial_index": 3,
      "time_elapsed": 28010,
      "internal_node_id": "0.0-3.0",
      "responseType": "finish",
      "participantID": "e2qj4x1m364kmzzdxlxqwwlmdnepj4th",
      "problems_seen": [
        "Solve this anagram: AALRYS",
        "The following verse spells out a word. I am a food for you and me. My first letter is in pat but not in tar. My second letter is in stream but not in smart. My third letter is in giraffe but not in fridge. My fourth letter is in treat but not in absent. What is the word that this verse described?",
        "Joe Fan has no psychic powers but he can tell you the score of any football game before it starts. How?"
      ]
    },
    {
      "rt": 3895,
      "stimulus": "<blockquote>\n  <p>Now a problem will be shown to you. <br><br> Press 'v' to view the problem.</p>\n</blockquote>",
      "key_press": 86,
      "trial_type": "html-keyboard-response",
      "trial_index": 4,
      "time_elapsed": 31907,
      "internal_node_id": "0.0-4.0-0.0",
      "responseType": "finish",
      "participantID": "e2qj4x1m364kmzzdxlxqwwlmdnepj4th",
      "problems_seen": [
        "Solve this anagram: AALRYS",
        "The following verse spells out a word. I am a food for you and me. My first letter is in pat but not in tar. My second letter is in stream but not in smart. My third letter is in giraffe but not in fridge. My fourth letter is in treat but not in absent. What is the word that this verse described?",
        "Joe Fan has no psychic powers but he can tell you the score of any football game before it starts. How?"
      ]
    },
    {
      "rt": 10002,
      "responses": "{\"Q0\":\"\"}",
      "trial_type": "survey-text",
      "trial_index": 5,
      "time_elapsed": 41920,
      "internal_node_id": "0.0-4.0-1.0-0.0",
      "responseType": "finish",
      "participantID": "e2qj4x1m364kmzzdxlxqwwlmdnepj4th",
      "problems_seen": [
        "Solve this anagram: AALRYS",
        "The following verse spells out a word. I am a food for you and me. My first letter is in pat but not in tar. My second letter is in stream but not in smart. My third letter is in giraffe but not in fridge. My fourth letter is in treat but not in absent. What is the word that this verse described?",
        "Joe Fan has no psychic powers but he can tell you the score of any football game before it starts. How?"
      ]
    },
    {
      "rt": 5936.399999991059,
      "response": "0",
      "stimulus": "<center><p>How close are you towards solving this problem?</p></center>",
      "trial_type": "html-slider-response",
      "trial_index": 6,
      "time_elapsed": 47858,
      "internal_node_id": "0.0-4.0-1.0-1.0",
      "responseType": "finish",
      "participantID": "e2qj4x1m364kmzzdxlxqwwlmdnepj4th",
      "problems_seen": [
        "Solve this anagram: AALRYS",
        "The following verse spells out a word. I am a food for you and me. My first letter is in pat but not in tar. My second letter is in stream but not in smart. My third letter is in giraffe but not in fridge. My fourth letter is in treat but not in absent. What is the word that this verse described?",
        "Joe Fan has no psychic powers but he can tell you the score of any football game before it starts. How?"
      ]
    },
    {
      "rt": 8710,
      "responses": "{\"Q0\":\"DONE\"}",
      "trial_type": "survey-text",
      "trial_index": 7,
      "time_elapsed": 56570,
      "internal_node_id": "0.0-4.0-1.1-0.1",
      "responseType": "finish",
      "participantID": "e2qj4x1m364kmzzdxlxqwwlmdnepj4th",
      "problems_seen": [
        "Solve this anagram: AALRYS",
        "The following verse spells out a word. I am a food for you and me. My first letter is in pat but not in tar. My second letter is in stream but not in smart. My third letter is in giraffe but not in fridge. My fourth letter is in treat but not in absent. What is the word that this verse described?",
        "Joe Fan has no psychic powers but he can tell you the score of any football game before it starts. How?"
      ]
    },
    {
      "rt": 3271.0999999940395,
      "response": "100",
      "stimulus": "<center><p>How close are you towards solving this problem?</p></center>",
      "trial_type": "html-slider-response",
      "trial_index": 8,
      "time_elapsed": 59842,
      "internal_node_id": "0.0-4.0-1.1-1.1",
      "responseType": "finish",
      "participantID": "e2qj4x1m364kmzzdxlxqwwlmdnepj4th",
      "problems_seen": [
        "Solve this anagram: AALRYS",
        "The following verse spells out a word. I am a food for you and me. My first letter is in pat but not in tar. My second letter is in stream but not in smart. My third letter is in giraffe but not in fridge. My fourth letter is in treat but not in absent. What is the word that this verse described?",
        "Joe Fan has no psychic powers but he can tell you the score of any football game before it starts. How?"
      ]
    },
    {
      "rt": 5455,
      "responses": "{\"Q0\":\"SALARY\"}",
      "trial_type": "survey-text",
      "trial_index": 9,
      "time_elapsed": 65298,
      "internal_node_id": "0.0-4.0-2.0",
      "responseType": "finish",
      "participantID": "e2qj4x1m364kmzzdxlxqwwlmdnepj4th",
      "problems_seen": [
        "Solve this anagram: AALRYS",
        "The following verse spells out a word. I am a food for you and me. My first letter is in pat but not in tar. My second letter is in stream but not in smart. My third letter is in giraffe but not in fridge. My fourth letter is in treat but not in absent. What is the word that this verse described?",
        "Joe Fan has no psychic powers but he can tell you the score of any football game before it starts. How?"
      ]
    },
    {
      "rt": 16592,
      "responses": "{\"Q0\":6,\"Q1\":3,\"Q2\":5}",
      "trial_type": "survey-likert",
      "trial_index": 10,
      "time_elapsed": 81890,
      "internal_node_id": "0.0-4.0-3.0-0.0",
      "responseType": "finish",
      "participantID": "e2qj4x1m364kmzzdxlxqwwlmdnepj4th",
      "problems_seen": [
        "Solve this anagram: AALRYS",
        "The following verse spells out a word. I am a food for you and me. My first letter is in pat but not in tar. My second letter is in stream but not in smart. My third letter is in giraffe but not in fridge. My fourth letter is in treat but not in absent. What is the word that this verse described?",
        "Joe Fan has no psychic powers but he can tell you the score of any football game before it starts. How?"
      ]
    },
    {
      "rt": 1502,
      "stimulus": "<blockquote>\n  <p>Now a problem will be shown to you. <br><br> Press 'v' to view the problem.</p>\n</blockquote>",
      "key_press": 86,
      "trial_type": "html-keyboard-response",
      "trial_index": 11,
      "time_elapsed": 83393,
      "internal_node_id": "0.0-4.1-0.1",
      "responseType": "finish",
      "participantID": "e2qj4x1m364kmzzdxlxqwwlmdnepj4th",
      "problems_seen": [
        "Solve this anagram: AALRYS",
        "The following verse spells out a word. I am a food for you and me. My first letter is in pat but not in tar. My second letter is in stream but not in smart. My third letter is in giraffe but not in fridge. My fourth letter is in treat but not in absent. What is the word that this verse described?",
        "Joe Fan has no psychic powers but he can tell you the score of any football game before it starts. How?"
      ]
    },
    {
      "rt": 10010,
      "responses": "{\"Q0\":\"\"}",
      "trial_type": "survey-text",
      "trial_index": 12,
      "time_elapsed": 93414,
      "internal_node_id": "0.0-4.1-1.2-0.2",
      "responseType": "finish",
      "participantID": "e2qj4x1m364kmzzdxlxqwwlmdnepj4th",
      "problems_seen": [
        "Solve this anagram: AALRYS",
        "The following verse spells out a word. I am a food for you and me. My first letter is in pat but not in tar. My second letter is in stream but not in smart. My third letter is in giraffe but not in fridge. My fourth letter is in treat but not in absent. What is the word that this verse described?",
        "Joe Fan has no psychic powers but he can tell you the score of any football game before it starts. How?"
      ]
    },
    {
      "rt": 2898.0999999940395,
      "response": "0",
      "stimulus": "<center><p>How close are you towards solving this problem?</p></center>",
      "trial_type": "html-slider-response",
      "trial_index": 13,
      "time_elapsed": 96313,
      "internal_node_id": "0.0-4.1-1.2-1.2",
      "responseType": "finish",
      "participantID": "e2qj4x1m364kmzzdxlxqwwlmdnepj4th",
      "problems_seen": [
        "Solve this anagram: AALRYS",
        "The following verse spells out a word. I am a food for you and me. My first letter is in pat but not in tar. My second letter is in stream but not in smart. My third letter is in giraffe but not in fridge. My fourth letter is in treat but not in absent. What is the word that this verse described?",
        "Joe Fan has no psychic powers but he can tell you the score of any football game before it starts. How?"
      ]
    },
    {
      "rt": 10001,
      "responses": "{\"Q0\":\"\"}",
      "trial_type": "survey-text",
      "trial_index": 14,
      "time_elapsed": 106317,
      "internal_node_id": "0.0-4.1-1.3-0.3",
      "responseType": "finish",
      "participantID": "e2qj4x1m364kmzzdxlxqwwlmdnepj4th",
      "problems_seen": [
        "Solve this anagram: AALRYS",
        "The following verse spells out a word. I am a food for you and me. My first letter is in pat but not in tar. My second letter is in stream but not in smart. My third letter is in giraffe but not in fridge. My fourth letter is in treat but not in absent. What is the word that this verse described?",
        "Joe Fan has no psychic powers but he can tell you the score of any football game before it starts. How?"
      ]
    },
    {
      "rt": 6619.70000000298,
      "response": "36",
      "stimulus": "<center><p>How close are you towards solving this problem?</p></center>",
      "trial_type": "html-slider-response",
      "trial_index": 15,
      "time_elapsed": 112937,
      "internal_node_id": "0.0-4.1-1.3-1.3",
      "responseType": "finish",
      "participantID": "e2qj4x1m364kmzzdxlxqwwlmdnepj4th",
      "problems_seen": [
        "Solve this anagram: AALRYS",
        "The following verse spells out a word. I am a food for you and me. My first letter is in pat but not in tar. My second letter is in stream but not in smart. My third letter is in giraffe but not in fridge. My fourth letter is in treat but not in absent. What is the word that this verse described?",
        "Joe Fan has no psychic powers but he can tell you the score of any football game before it starts. How?"
      ]
    },
    {
      "rt": 10001,
      "responses": "{\"Q0\":\"\"}",
      "trial_type": "survey-text",
      "trial_index": 16,
      "time_elapsed": 122939,
      "internal_node_id": "0.0-4.1-1.4-0.4",
      "responseType": "finish",
      "participantID": "e2qj4x1m364kmzzdxlxqwwlmdnepj4th",
      "problems_seen": [
        "Solve this anagram: AALRYS",
        "The following verse spells out a word. I am a food for you and me. My first letter is in pat but not in tar. My second letter is in stream but not in smart. My third letter is in giraffe but not in fridge. My fourth letter is in treat but not in absent. What is the word that this verse described?",
        "Joe Fan has no psychic powers but he can tell you the score of any football game before it starts. How?"
      ]
    },
    {
      "rt": 2373.5999999940395,
      "response": "0",
      "stimulus": "<center><p>How close are you towards solving this problem?</p></center>",
      "trial_type": "html-slider-response",
      "trial_index": 17,
      "time_elapsed": 125313,
      "internal_node_id": "0.0-4.1-1.4-1.4",
      "responseType": "finish",
      "participantID": "e2qj4x1m364kmzzdxlxqwwlmdnepj4th",
      "problems_seen": [
        "Solve this anagram: AALRYS",
        "The following verse spells out a word. I am a food for you and me. My first letter is in pat but not in tar. My second letter is in stream but not in smart. My third letter is in giraffe but not in fridge. My fourth letter is in treat but not in absent. What is the word that this verse described?",
        "Joe Fan has no psychic powers but he can tell you the score of any football game before it starts. How?"
      ]
    },
    {
      "rt": 10000,
      "responses": "{\"Q0\":\"\"}",
      "trial_type": "survey-text",
      "trial_index": 18,
      "time_elapsed": 135325,
      "internal_node_id": "0.0-4.1-1.5-0.5",
      "responseType": "finish",
      "participantID": "e2qj4x1m364kmzzdxlxqwwlmdnepj4th",
      "problems_seen": [
        "Solve this anagram: AALRYS",
        "The following verse spells out a word. I am a food for you and me. My first letter is in pat but not in tar. My second letter is in stream but not in smart. My third letter is in giraffe but not in fridge. My fourth letter is in treat but not in absent. What is the word that this verse described?",
        "Joe Fan has no psychic powers but he can tell you the score of any football game before it starts. How?"
      ]
    },
    {
      "rt": 5554.79999999702,
      "response": "43",
      "stimulus": "<center><p>How close are you towards solving this problem?</p></center>",
      "trial_type": "html-slider-response",
      "trial_index": 19,
      "time_elapsed": 140881,
      "internal_node_id": "0.0-4.1-1.5-1.5",
      "responseType": "finish",
      "participantID": "e2qj4x1m364kmzzdxlxqwwlmdnepj4th",
      "problems_seen": [
        "Solve this anagram: AALRYS",
        "The following verse spells out a word. I am a food for you and me. My first letter is in pat but not in tar. My second letter is in stream but not in smart. My third letter is in giraffe but not in fridge. My fourth letter is in treat but not in absent. What is the word that this verse described?",
        "Joe Fan has no psychic powers but he can tell you the score of any football game before it starts. How?"
      ]
    },
    {
      "rt": 10000,
      "responses": "{\"Q0\":\"\"}",
      "trial_type": "survey-text",
      "trial_index": 20,
      "time_elapsed": 150884,
      "internal_node_id": "0.0-4.1-1.6-0.6",
      "responseType": "finish",
      "participantID": "e2qj4x1m364kmzzdxlxqwwlmdnepj4th",
      "problems_seen": [
        "Solve this anagram: AALRYS",
        "The following verse spells out a word. I am a food for you and me. My first letter is in pat but not in tar. My second letter is in stream but not in smart. My third letter is in giraffe but not in fridge. My fourth letter is in treat but not in absent. What is the word that this verse described?",
        "Joe Fan has no psychic powers but he can tell you the score of any football game before it starts. How?"
      ]
    },
    {
      "rt": 2180.9000000059605,
      "response": "0",
      "stimulus": "<center><p>How close are you towards solving this problem?</p></center>",
      "trial_type": "html-slider-response",
      "trial_index": 21,
      "time_elapsed": 153065,
      "internal_node_id": "0.0-4.1-1.6-1.6",
      "responseType": "finish",
      "participantID": "e2qj4x1m364kmzzdxlxqwwlmdnepj4th",
      "problems_seen": [
        "Solve this anagram: AALRYS",
        "The following verse spells out a word. I am a food for you and me. My first letter is in pat but not in tar. My second letter is in stream but not in smart. My third letter is in giraffe but not in fridge. My fourth letter is in treat but not in absent. What is the word that this verse described?",
        "Joe Fan has no psychic powers but he can tell you the score of any football game before it starts. How?"
      ]
    },
    {
      "rt": 10013,
      "responses": "{\"Q0\":\"\"}",
      "trial_type": "survey-text",
      "trial_index": 22,
      "time_elapsed": 163079,
      "internal_node_id": "0.0-4.1-1.7-0.7",
      "responseType": "finish",
      "participantID": "e2qj4x1m364kmzzdxlxqwwlmdnepj4th",
      "problems_seen": [
        "Solve this anagram: AALRYS",
        "The following verse spells out a word. I am a food for you and me. My first letter is in pat but not in tar. My second letter is in stream but not in smart. My third letter is in giraffe but not in fridge. My fourth letter is in treat but not in absent. What is the word that this verse described?",
        "Joe Fan has no psychic powers but he can tell you the score of any football game before it starts. How?"
      ]
    },
    {
      "rt": 2113.2000000029802,
      "response": "3",
      "stimulus": "<center><p>How close are you towards solving this problem?</p></center>",
      "trial_type": "html-slider-response",
      "trial_index": 23,
      "time_elapsed": 165193,
      "internal_node_id": "0.0-4.1-1.7-1.7",
      "responseType": "finish",
      "participantID": "e2qj4x1m364kmzzdxlxqwwlmdnepj4th",
      "problems_seen": [
        "Solve this anagram: AALRYS",
        "The following verse spells out a word. I am a food for you and me. My first letter is in pat but not in tar. My second letter is in stream but not in smart. My third letter is in giraffe but not in fridge. My fourth letter is in treat but not in absent. What is the word that this verse described?",
        "Joe Fan has no psychic powers but he can tell you the score of any football game before it starts. How?"
      ]
    },
    {
      "rt": 10013,
      "responses": "{\"Q0\":\"\"}",
      "trial_type": "survey-text",
      "trial_index": 24,
      "time_elapsed": 175207,
      "internal_node_id": "0.0-4.1-1.8-0.8",
      "responseType": "finish",
      "participantID": "e2qj4x1m364kmzzdxlxqwwlmdnepj4th",
      "problems_seen": [
        "Solve this anagram: AALRYS",
        "The following verse spells out a word. I am a food for you and me. My first letter is in pat but not in tar. My second letter is in stream but not in smart. My third letter is in giraffe but not in fridge. My fourth letter is in treat but not in absent. What is the word that this verse described?",
        "Joe Fan has no psychic powers but he can tell you the score of any football game before it starts. How?"
      ]
    },
    {
      "rt": 11945.20000000298,
      "response": "21",
      "stimulus": "<center><p>How close are you towards solving this problem?</p></center>",
      "trial_type": "html-slider-response",
      "trial_index": 25,
      "time_elapsed": 187154,
      "internal_node_id": "0.0-4.1-1.8-1.8",
      "responseType": "finish",
      "participantID": "e2qj4x1m364kmzzdxlxqwwlmdnepj4th",
      "problems_seen": [
        "Solve this anagram: AALRYS",
        "The following verse spells out a word. I am a food for you and me. My first letter is in pat but not in tar. My second letter is in stream but not in smart. My third letter is in giraffe but not in fridge. My fourth letter is in treat but not in absent. What is the word that this verse described?",
        "Joe Fan has no psychic powers but he can tell you the score of any football game before it starts. How?"
      ]
    },
    {
      "rt": 10000,
      "responses": "{\"Q0\":\"\"}",
      "trial_type": "survey-text",
      "trial_index": 26,
      "time_elapsed": 197164,
      "internal_node_id": "0.0-4.1-1.9-0.9",
      "responseType": "finish",
      "participantID": "e2qj4x1m364kmzzdxlxqwwlmdnepj4th",
      "problems_seen": [
        "Solve this anagram: AALRYS",
        "The following verse spells out a word. I am a food for you and me. My first letter is in pat but not in tar. My second letter is in stream but not in smart. My third letter is in giraffe but not in fridge. My fourth letter is in treat but not in absent. What is the word that this verse described?",
        "Joe Fan has no psychic powers but he can tell you the score of any football game before it starts. How?"
      ]
    },
    {
      "rt": 1772.7000000029802,
      "response": "4",
      "stimulus": "<center><p>How close are you towards solving this problem?</p></center>",
      "trial_type": "html-slider-response",
      "trial_index": 27,
      "time_elapsed": 198938,
      "internal_node_id": "0.0-4.1-1.9-1.9",
      "responseType": "finish",
      "participantID": "e2qj4x1m364kmzzdxlxqwwlmdnepj4th",
      "problems_seen": [
        "Solve this anagram: AALRYS",
        "The following verse spells out a word. I am a food for you and me. My first letter is in pat but not in tar. My second letter is in stream but not in smart. My third letter is in giraffe but not in fridge. My fourth letter is in treat but not in absent. What is the word that this verse described?",
        "Joe Fan has no psychic powers but he can tell you the score of any football game before it starts. How?"
      ]
    },
    {
      "rt": 10014,
      "responses": "{\"Q0\":\"\"}",
      "trial_type": "survey-text",
      "trial_index": 28,
      "time_elapsed": 208953,
      "internal_node_id": "0.0-4.1-1.10-0.10",
      "responseType": "finish",
      "participantID": "e2qj4x1m364kmzzdxlxqwwlmdnepj4th",
      "problems_seen": [
        "Solve this anagram: AALRYS",
        "The following verse spells out a word. I am a food for you and me. My first letter is in pat but not in tar. My second letter is in stream but not in smart. My third letter is in giraffe but not in fridge. My fourth letter is in treat but not in absent. What is the word that this verse described?",
        "Joe Fan has no psychic powers but he can tell you the score of any football game before it starts. How?"
      ]
    },
    {
      "rt": 2087.5,
      "response": "15",
      "stimulus": "<center><p>How close are you towards solving this problem?</p></center>",
      "trial_type": "html-slider-response",
      "trial_index": 29,
      "time_elapsed": 211042,
      "internal_node_id": "0.0-4.1-1.10-1.10",
      "responseType": "finish",
      "participantID": "e2qj4x1m364kmzzdxlxqwwlmdnepj4th",
      "problems_seen": [
        "Solve this anagram: AALRYS",
        "The following verse spells out a word. I am a food for you and me. My first letter is in pat but not in tar. My second letter is in stream but not in smart. My third letter is in giraffe but not in fridge. My fourth letter is in treat but not in absent. What is the word that this verse described?",
        "Joe Fan has no psychic powers but he can tell you the score of any football game before it starts. How?"
      ]
    },
    {
      "rt": 10001,
      "responses": "{\"Q0\":\"\"}",
      "trial_type": "survey-text",
      "trial_index": 30,
      "time_elapsed": 221043,
      "internal_node_id": "0.0-4.1-1.11-0.11",
      "responseType": "finish",
      "participantID": "e2qj4x1m364kmzzdxlxqwwlmdnepj4th",
      "problems_seen": [
        "Solve this anagram: AALRYS",
        "The following verse spells out a word. I am a food for you and me. My first letter is in pat but not in tar. My second letter is in stream but not in smart. My third letter is in giraffe but not in fridge. My fourth letter is in treat but not in absent. What is the word that this verse described?",
        "Joe Fan has no psychic powers but he can tell you the score of any football game before it starts. How?"
      ]
    },
    {
      "rt": 2013.5,
      "response": "0",
      "stimulus": "<center><p>How close are you towards solving this problem?</p></center>",
      "trial_type": "html-slider-response",
      "trial_index": 31,
      "time_elapsed": 223057,
      "internal_node_id": "0.0-4.1-1.11-1.11",
      "responseType": "finish",
      "participantID": "e2qj4x1m364kmzzdxlxqwwlmdnepj4th",
      "problems_seen": [
        "Solve this anagram: AALRYS",
        "The following verse spells out a word. I am a food for you and me. My first letter is in pat but not in tar. My second letter is in stream but not in smart. My third letter is in giraffe but not in fridge. My fourth letter is in treat but not in absent. What is the word that this verse described?",
        "Joe Fan has no psychic powers but he can tell you the score of any football game before it starts. How?"
      ]
    },
    {
      "rt": 5215,
      "responses": "{\"Q0\":\"DONE\"}",
      "trial_type": "survey-text",
      "trial_index": 32,
      "time_elapsed": 228274,
      "internal_node_id": "0.0-4.1-1.12-0.12",
      "responseType": "finish",
      "participantID": "e2qj4x1m364kmzzdxlxqwwlmdnepj4th",
      "problems_seen": [
        "Solve this anagram: AALRYS",
        "The following verse spells out a word. I am a food for you and me. My first letter is in pat but not in tar. My second letter is in stream but not in smart. My third letter is in giraffe but not in fridge. My fourth letter is in treat but not in absent. What is the word that this verse described?",
        "Joe Fan has no psychic powers but he can tell you the score of any football game before it starts. How?"
      ]
    },
    {
      "rt": 2551.0999999940395,
      "response": "100",
      "stimulus": "<center><p>How close are you towards solving this problem?</p></center>",
      "trial_type": "html-slider-response",
      "trial_index": 33,
      "time_elapsed": 230825,
      "internal_node_id": "0.0-4.1-1.12-1.12",
      "responseType": "finish",
      "participantID": "e2qj4x1m364kmzzdxlxqwwlmdnepj4th",
      "problems_seen": [
        "Solve this anagram: AALRYS",
        "The following verse spells out a word. I am a food for you and me. My first letter is in pat but not in tar. My second letter is in stream but not in smart. My third letter is in giraffe but not in fridge. My fourth letter is in treat but not in absent. What is the word that this verse described?",
        "Joe Fan has no psychic powers but he can tell you the score of any football game before it starts. How?"
      ]
    },
    {
      "rt": 3447,
      "responses": "{\"Q0\":\"PEAR\"}",
      "trial_type": "survey-text",
      "trial_index": 34,
      "time_elapsed": 234274,
      "internal_node_id": "0.0-4.1-2.1",
      "responseType": "finish",
      "participantID": "e2qj4x1m364kmzzdxlxqwwlmdnepj4th",
      "problems_seen": [
        "Solve this anagram: AALRYS",
        "The following verse spells out a word. I am a food for you and me. My first letter is in pat but not in tar. My second letter is in stream but not in smart. My third letter is in giraffe but not in fridge. My fourth letter is in treat but not in absent. What is the word that this verse described?",
        "Joe Fan has no psychic powers but he can tell you the score of any football game before it starts. How?"
      ]
    },
    {
      "rt": 9039,
      "responses": "{\"Q0\":6,\"Q1\":4,\"Q2\":4}",
      "trial_type": "survey-likert",
      "trial_index": 35,
      "time_elapsed": 243314,
      "internal_node_id": "0.0-4.1-3.1-0.1",
      "responseType": "finish",
      "participantID": "e2qj4x1m364kmzzdxlxqwwlmdnepj4th",
      "problems_seen": [
        "Solve this anagram: AALRYS",
        "The following verse spells out a word. I am a food for you and me. My first letter is in pat but not in tar. My second letter is in stream but not in smart. My third letter is in giraffe but not in fridge. My fourth letter is in treat but not in absent. What is the word that this verse described?",
        "Joe Fan has no psychic powers but he can tell you the score of any football game before it starts. How?"
      ]
    },
    {
      "rt": 1759,
      "stimulus": "<blockquote>\n  <p>Now a problem will be shown to you. <br><br> Press 'v' to view the problem.</p>\n</blockquote>",
      "key_press": 86,
      "trial_type": "html-keyboard-response",
      "trial_index": 36,
      "time_elapsed": 245074,
      "internal_node_id": "0.0-4.2-0.2",
      "responseType": "finish",
      "participantID": "e2qj4x1m364kmzzdxlxqwwlmdnepj4th",
      "problems_seen": [
        "Solve this anagram: AALRYS",
        "The following verse spells out a word. I am a food for you and me. My first letter is in pat but not in tar. My second letter is in stream but not in smart. My third letter is in giraffe but not in fridge. My fourth letter is in treat but not in absent. What is the word that this verse described?",
        "Joe Fan has no psychic powers but he can tell you the score of any football game before it starts. How?"
      ]
    },
    {
      "rt": 10001,
      "responses": "{\"Q0\":\"\"}",
      "trial_type": "survey-text",
      "trial_index": 37,
      "time_elapsed": 255085,
      "internal_node_id": "0.0-4.2-1.13-0.13",
      "responseType": "finish",
      "participantID": "e2qj4x1m364kmzzdxlxqwwlmdnepj4th",
      "problems_seen": [
        "Solve this anagram: AALRYS",
        "The following verse spells out a word. I am a food for you and me. My first letter is in pat but not in tar. My second letter is in stream but not in smart. My third letter is in giraffe but not in fridge. My fourth letter is in treat but not in absent. What is the word that this verse described?",
        "Joe Fan has no psychic powers but he can tell you the score of any football game before it starts. How?"
      ]
    },
    {
      "rt": 2532.0999999940395,
      "response": "2",
      "stimulus": "<center><p>How close are you towards solving this problem?</p></center>",
      "trial_type": "html-slider-response",
      "trial_index": 38,
      "time_elapsed": 257617,
      "internal_node_id": "0.0-4.2-1.13-1.13",
      "responseType": "finish",
      "participantID": "e2qj4x1m364kmzzdxlxqwwlmdnepj4th",
      "problems_seen": [
        "Solve this anagram: AALRYS",
        "The following verse spells out a word. I am a food for you and me. My first letter is in pat but not in tar. My second letter is in stream but not in smart. My third letter is in giraffe but not in fridge. My fourth letter is in treat but not in absent. What is the word that this verse described?",
        "Joe Fan has no psychic powers but he can tell you the score of any football game before it starts. How?"
      ]
    },
    {
      "rt": 8591,
      "responses": "{\"Q0\":\"DONE\"}",
      "trial_type": "survey-text",
      "trial_index": 39,
      "time_elapsed": 266209,
      "internal_node_id": "0.0-4.2-1.14-0.14",
      "responseType": "finish",
      "participantID": "e2qj4x1m364kmzzdxlxqwwlmdnepj4th",
      "problems_seen": [
        "Solve this anagram: AALRYS",
        "The following verse spells out a word. I am a food for you and me. My first letter is in pat but not in tar. My second letter is in stream but not in smart. My third letter is in giraffe but not in fridge. My fourth letter is in treat but not in absent. What is the word that this verse described?",
        "Joe Fan has no psychic powers but he can tell you the score of any football game before it starts. How?"
      ]
    },
    {
      "rt": 2783,
      "response": "100",
      "stimulus": "<center><p>How close are you towards solving this problem?</p></center>",
      "trial_type": "html-slider-response",
      "trial_index": 40,
      "time_elapsed": 268993,
      "internal_node_id": "0.0-4.2-1.14-1.14",
      "responseType": "finish",
      "participantID": "e2qj4x1m364kmzzdxlxqwwlmdnepj4th",
      "problems_seen": [
        "Solve this anagram: AALRYS",
        "The following verse spells out a word. I am a food for you and me. My first letter is in pat but not in tar. My second letter is in stream but not in smart. My third letter is in giraffe but not in fridge. My fourth letter is in treat but not in absent. What is the word that this verse described?",
        "Joe Fan has no psychic powers but he can tell you the score of any football game before it starts. How?"
      ]
    },
    {
      "rt": 21167,
      "responses": "{\"Q0\":\"His answers for scores are incorrect.\"}",
      "trial_type": "survey-text",
      "trial_index": 41,
      "time_elapsed": 290161,
      "internal_node_id": "0.0-4.2-2.2",
      "responseType": "finish",
      "participantID": "e2qj4x1m364kmzzdxlxqwwlmdnepj4th",
      "problems_seen": [
        "Solve this anagram: AALRYS",
        "The following verse spells out a word. I am a food for you and me. My first letter is in pat but not in tar. My second letter is in stream but not in smart. My third letter is in giraffe but not in fridge. My fourth letter is in treat but not in absent. What is the word that this verse described?",
        "Joe Fan has no psychic powers but he can tell you the score of any football game before it starts. How?"
      ]
    },
    {
      "rt": 13183,
      "responses": "{\"Q0\":3,\"Q1\":3,\"Q2\":2}",
      "trial_type": "survey-likert",
      "trial_index": 42,
      "time_elapsed": 303345,
      "internal_node_id": "0.0-4.2-3.2-0.2",
      "responseType": "finish",
      "participantID": "e2qj4x1m364kmzzdxlxqwwlmdnepj4th",
      "problems_seen": [
        "Solve this anagram: AALRYS",
        "The following verse spells out a word. I am a food for you and me. My first letter is in pat but not in tar. My second letter is in stream but not in smart. My third letter is in giraffe but not in fridge. My fourth letter is in treat but not in absent. What is the word that this verse described?",
        "Joe Fan has no psychic powers but he can tell you the score of any football game before it starts. How?"
      ]
    }
  ],
  "__v": 0
},{
  "_id": {
    "$oid": "61ec599f5de54e0004a9d7df"
  },
  "data": {
    "responseType": "start",
    "participantID": "81vgfajvpmd7c51z4ees2wfu5fzsdywp",
    "problems_seen": [
      "Solve this anagram: AALRYS",
      "Sid Shady was working for a large construction company that was very concerned about employee theft. Someone tipped company security that Shady was the man to watch. Each night, he passed through security with a wheelbarrow full of scrap lumber, discarded electrical wires, and chunks of concrete. The security guards checked the contents daily, but could find nothing of value. What was Shady stealing?",
      "What day follows the day before yesterday if two days from now will be Sunday?"
    ]
  },
  "__v": 0
},{
  "_id": {
    "$oid": "61ec59c45de54e0004a9d7e0"
  },
  "data": [
    {
      "rt": 6762,
      "responses": "{\"Q0\":\" I consent to participate\"}",
      "trial_type": "survey-multi-choice",
      "trial_index": 0,
      "time_elapsed": 6768,
      "internal_node_id": "0.0-0.0",
      "responseType": "finish",
      "participantID": "53w0r1qz5z1x08ovt3v1415fraulchmc",
      "problems_seen": [
        "What day follows the day before yesterday if two days from now will be Sunday?",
        "A man is reading a book when the lights go off but even although the room is pitch dark the man goes on reading. How?",
        "Solve this anagram: AYKAWLJ"
      ]
    },
    {
      "trial_type": "call-function",
      "trial_index": 1,
      "time_elapsed": 6775,
      "internal_node_id": "0.0-1.0",
      "responseType": "finish",
      "participantID": "53w0r1qz5z1x08ovt3v1415fraulchmc",
      "problems_seen": [
        "What day follows the day before yesterday if two days from now will be Sunday?",
        "A man is reading a book when the lights go off but even although the room is pitch dark the man goes on reading. How?",
        "Solve this anagram: AYKAWLJ"
      ]
    },
    {
      "view_history": "[{\"page_index\":0,\"viewing_time\":7553},{\"page_index\":1,\"viewing_time\":5747}]",
      "rt": 13301,
      "trial_type": "instructions",
      "trial_index": 2,
      "time_elapsed": 20078,
      "internal_node_id": "0.0-2.0",
      "responseType": "finish",
      "participantID": "53w0r1qz5z1x08ovt3v1415fraulchmc",
      "problems_seen": [
        "What day follows the day before yesterday if two days from now will be Sunday?",
        "A man is reading a book when the lights go off but even although the room is pitch dark the man goes on reading. How?",
        "Solve this anagram: AYKAWLJ"
      ]
    },
    {
      "rt": 3525,
      "responses": "{\"Q0\":\"3 problems\"}",
      "trial_type": "survey-multi-choice",
      "trial_index": 3,
      "time_elapsed": 23604,
      "internal_node_id": "0.0-3.0",
      "responseType": "finish",
      "participantID": "53w0r1qz5z1x08ovt3v1415fraulchmc",
      "problems_seen": [
        "What day follows the day before yesterday if two days from now will be Sunday?",
        "A man is reading a book when the lights go off but even although the room is pitch dark the man goes on reading. How?",
        "Solve this anagram: AYKAWLJ"
      ]
    },
    {
      "rt": 2234,
      "stimulus": "<blockquote>\n  <p>Now a problem will be shown to you. <br><br> Press 'v' to view the problem.</p>\n</blockquote>",
      "key_press": 86,
      "trial_type": "html-keyboard-response",
      "trial_index": 4,
      "time_elapsed": 25839,
      "internal_node_id": "0.0-4.0-0.0",
      "responseType": "finish",
      "participantID": "53w0r1qz5z1x08ovt3v1415fraulchmc",
      "problems_seen": [
        "What day follows the day before yesterday if two days from now will be Sunday?",
        "A man is reading a book when the lights go off but even although the room is pitch dark the man goes on reading. How?",
        "Solve this anagram: AYKAWLJ"
      ]
    },
    {
      "rt": 10015,
      "responses": "{\"Q0\":\"\"}",
      "trial_type": "survey-text",
      "trial_index": 5,
      "time_elapsed": 35926,
      "internal_node_id": "0.0-4.0-1.0-0.0",
      "responseType": "finish",
      "participantID": "53w0r1qz5z1x08ovt3v1415fraulchmc",
      "problems_seen": [
        "What day follows the day before yesterday if two days from now will be Sunday?",
        "A man is reading a book when the lights go off but even although the room is pitch dark the man goes on reading. How?",
        "Solve this anagram: AYKAWLJ"
      ]
    },
    {
      "rt": 4195.799999982119,
      "response": "34",
      "stimulus": "<center><p>How close are you towards solving this problem?</p></center>",
      "trial_type": "html-slider-response",
      "trial_index": 6,
      "time_elapsed": 40123,
      "internal_node_id": "0.0-4.0-1.0-1.0",
      "responseType": "finish",
      "participantID": "53w0r1qz5z1x08ovt3v1415fraulchmc",
      "problems_seen": [
        "What day follows the day before yesterday if two days from now will be Sunday?",
        "A man is reading a book when the lights go off but even although the room is pitch dark the man goes on reading. How?",
        "Solve this anagram: AYKAWLJ"
      ]
    },
    {
      "rt": 10003,
      "responses": "{\"Q0\":\"\"}",
      "trial_type": "survey-text",
      "trial_index": 7,
      "time_elapsed": 50136,
      "internal_node_id": "0.0-4.0-1.1-0.1",
      "responseType": "finish",
      "participantID": "53w0r1qz5z1x08ovt3v1415fraulchmc",
      "problems_seen": [
        "What day follows the day before yesterday if two days from now will be Sunday?",
        "A man is reading a book when the lights go off but even although the room is pitch dark the man goes on reading. How?",
        "Solve this anagram: AYKAWLJ"
      ]
    },
    {
      "rt": 4600.5999999940395,
      "response": "94",
      "stimulus": "<center><p>How close are you towards solving this problem?</p></center>",
      "trial_type": "html-slider-response",
      "trial_index": 8,
      "time_elapsed": 54737,
      "internal_node_id": "0.0-4.0-1.1-1.1",
      "responseType": "finish",
      "participantID": "53w0r1qz5z1x08ovt3v1415fraulchmc",
      "problems_seen": [
        "What day follows the day before yesterday if two days from now will be Sunday?",
        "A man is reading a book when the lights go off but even although the room is pitch dark the man goes on reading. How?",
        "Solve this anagram: AYKAWLJ"
      ]
    },
    {
      "rt": 10002,
      "responses": "{\"Q0\":\"DONE\"}",
      "trial_type": "survey-text",
      "trial_index": 9,
      "time_elapsed": 64741,
      "internal_node_id": "0.0-4.0-1.2-0.2",
      "responseType": "finish",
      "participantID": "53w0r1qz5z1x08ovt3v1415fraulchmc",
      "problems_seen": [
        "What day follows the day before yesterday if two days from now will be Sunday?",
        "A man is reading a book when the lights go off but even although the room is pitch dark the man goes on reading. How?",
        "Solve this anagram: AYKAWLJ"
      ]
    },
    {
      "rt": 2988.0999999940395,
      "response": "100",
      "stimulus": "<center><p>How close are you towards solving this problem?</p></center>",
      "trial_type": "html-slider-response",
      "trial_index": 10,
      "time_elapsed": 67730,
      "internal_node_id": "0.0-4.0-1.2-1.2",
      "responseType": "finish",
      "participantID": "53w0r1qz5z1x08ovt3v1415fraulchmc",
      "problems_seen": [
        "What day follows the day before yesterday if two days from now will be Sunday?",
        "A man is reading a book when the lights go off but even although the room is pitch dark the man goes on reading. How?",
        "Solve this anagram: AYKAWLJ"
      ]
    },
    {
      "rt": 9846,
      "responses": "{\"Q0\":\"Wednesday\"}",
      "trial_type": "survey-text",
      "trial_index": 11,
      "time_elapsed": 77577,
      "internal_node_id": "0.0-4.0-2.0",
      "responseType": "finish",
      "participantID": "53w0r1qz5z1x08ovt3v1415fraulchmc",
      "problems_seen": [
        "What day follows the day before yesterday if two days from now will be Sunday?",
        "A man is reading a book when the lights go off but even although the room is pitch dark the man goes on reading. How?",
        "Solve this anagram: AYKAWLJ"
      ]
    },
    {
      "rt": 20527,
      "responses": "{\"Q0\":5,\"Q1\":3,\"Q2\":4}",
      "trial_type": "survey-likert",
      "trial_index": 12,
      "time_elapsed": 98105,
      "internal_node_id": "0.0-4.0-3.0-0.0",
      "responseType": "finish",
      "participantID": "53w0r1qz5z1x08ovt3v1415fraulchmc",
      "problems_seen": [
        "What day follows the day before yesterday if two days from now will be Sunday?",
        "A man is reading a book when the lights go off but even although the room is pitch dark the man goes on reading. How?",
        "Solve this anagram: AYKAWLJ"
      ]
    },
    {
      "rt": 1581,
      "stimulus": "<blockquote>\n  <p>Now a problem will be shown to you. <br><br> Press 'v' to view the problem.</p>\n</blockquote>",
      "key_press": 86,
      "trial_type": "html-keyboard-response",
      "trial_index": 13,
      "time_elapsed": 99687,
      "internal_node_id": "0.0-4.1-0.1",
      "responseType": "finish",
      "participantID": "53w0r1qz5z1x08ovt3v1415fraulchmc",
      "problems_seen": [
        "What day follows the day before yesterday if two days from now will be Sunday?",
        "A man is reading a book when the lights go off but even although the room is pitch dark the man goes on reading. How?",
        "Solve this anagram: AYKAWLJ"
      ]
    },
    {
      "rt": 10005,
      "responses": "{\"Q0\":\"\"}",
      "trial_type": "survey-text",
      "trial_index": 14,
      "time_elapsed": 109755,
      "internal_node_id": "0.0-4.1-1.3-0.3",
      "responseType": "finish",
      "participantID": "53w0r1qz5z1x08ovt3v1415fraulchmc",
      "problems_seen": [
        "What day follows the day before yesterday if two days from now will be Sunday?",
        "A man is reading a book when the lights go off but even although the room is pitch dark the man goes on reading. How?",
        "Solve this anagram: AYKAWLJ"
      ]
    },
    {
      "rt": 5726.800000011921,
      "response": "20",
      "stimulus": "<center><p>How close are you towards solving this problem?</p></center>",
      "trial_type": "html-slider-response",
      "trial_index": 15,
      "time_elapsed": 115483,
      "internal_node_id": "0.0-4.1-1.3-1.3",
      "responseType": "finish",
      "participantID": "53w0r1qz5z1x08ovt3v1415fraulchmc",
      "problems_seen": [
        "What day follows the day before yesterday if two days from now will be Sunday?",
        "A man is reading a book when the lights go off but even although the room is pitch dark the man goes on reading. How?",
        "Solve this anagram: AYKAWLJ"
      ]
    },
    {
      "rt": 10001,
      "responses": "{\"Q0\":\"\"}",
      "trial_type": "survey-text",
      "trial_index": 16,
      "time_elapsed": 125497,
      "internal_node_id": "0.0-4.1-1.4-0.4",
      "responseType": "finish",
      "participantID": "53w0r1qz5z1x08ovt3v1415fraulchmc",
      "problems_seen": [
        "What day follows the day before yesterday if two days from now will be Sunday?",
        "A man is reading a book when the lights go off but even although the room is pitch dark the man goes on reading. How?",
        "Solve this anagram: AYKAWLJ"
      ]
    },
    {
      "rt": 3021.0999999940395,
      "response": "96",
      "stimulus": "<center><p>How close are you towards solving this problem?</p></center>",
      "trial_type": "html-slider-response",
      "trial_index": 17,
      "time_elapsed": 128518,
      "internal_node_id": "0.0-4.1-1.4-1.4",
      "responseType": "finish",
      "participantID": "53w0r1qz5z1x08ovt3v1415fraulchmc",
      "problems_seen": [
        "What day follows the day before yesterday if two days from now will be Sunday?",
        "A man is reading a book when the lights go off but even although the room is pitch dark the man goes on reading. How?",
        "Solve this anagram: AYKAWLJ"
      ]
    },
    {
      "rt": 2675,
      "responses": "{\"Q0\":\"DONE\"}",
      "trial_type": "survey-text",
      "trial_index": 18,
      "time_elapsed": 131194,
      "internal_node_id": "0.0-4.1-1.5-0.5",
      "responseType": "finish",
      "participantID": "53w0r1qz5z1x08ovt3v1415fraulchmc",
      "problems_seen": [
        "What day follows the day before yesterday if two days from now will be Sunday?",
        "A man is reading a book when the lights go off but even although the room is pitch dark the man goes on reading. How?",
        "Solve this anagram: AYKAWLJ"
      ]
    },
    {
      "rt": 2873.5999999940395,
      "response": "100",
      "stimulus": "<center><p>How close are you towards solving this problem?</p></center>",
      "trial_type": "html-slider-response",
      "trial_index": 19,
      "time_elapsed": 134068,
      "internal_node_id": "0.0-4.1-1.5-1.5",
      "responseType": "finish",
      "participantID": "53w0r1qz5z1x08ovt3v1415fraulchmc",
      "problems_seen": [
        "What day follows the day before yesterday if two days from now will be Sunday?",
        "A man is reading a book when the lights go off but even although the room is pitch dark the man goes on reading. How?",
        "Solve this anagram: AYKAWLJ"
      ]
    },
    {
      "rt": 13439,
      "responses": "{\"Q0\":\"he is using an electronic device to read\"}",
      "trial_type": "survey-text",
      "trial_index": 20,
      "time_elapsed": 147508,
      "internal_node_id": "0.0-4.1-2.1",
      "responseType": "finish",
      "participantID": "53w0r1qz5z1x08ovt3v1415fraulchmc",
      "problems_seen": [
        "What day follows the day before yesterday if two days from now will be Sunday?",
        "A man is reading a book when the lights go off but even although the room is pitch dark the man goes on reading. How?",
        "Solve this anagram: AYKAWLJ"
      ]
    },
    {
      "rt": 12417,
      "responses": "{\"Q0\":1,\"Q1\":5,\"Q2\":0}",
      "trial_type": "survey-likert",
      "trial_index": 21,
      "time_elapsed": 159927,
      "internal_node_id": "0.0-4.1-3.1-0.1",
      "responseType": "finish",
      "participantID": "53w0r1qz5z1x08ovt3v1415fraulchmc",
      "problems_seen": [
        "What day follows the day before yesterday if two days from now will be Sunday?",
        "A man is reading a book when the lights go off but even although the room is pitch dark the man goes on reading. How?",
        "Solve this anagram: AYKAWLJ"
      ]
    },
    {
      "rt": 1497,
      "stimulus": "<blockquote>\n  <p>Now a problem will be shown to you. <br><br> Press 'v' to view the problem.</p>\n</blockquote>",
      "key_press": 86,
      "trial_type": "html-keyboard-response",
      "trial_index": 22,
      "time_elapsed": 161425,
      "internal_node_id": "0.0-4.2-0.2",
      "responseType": "finish",
      "participantID": "53w0r1qz5z1x08ovt3v1415fraulchmc",
      "problems_seen": [
        "What day follows the day before yesterday if two days from now will be Sunday?",
        "A man is reading a book when the lights go off but even although the room is pitch dark the man goes on reading. How?",
        "Solve this anagram: AYKAWLJ"
      ]
    },
    {
      "rt": 7896,
      "responses": "{\"Q0\":\"DONE\"}",
      "trial_type": "survey-text",
      "trial_index": 23,
      "time_elapsed": 169381,
      "internal_node_id": "0.0-4.2-1.6-0.6",
      "responseType": "finish",
      "participantID": "53w0r1qz5z1x08ovt3v1415fraulchmc",
      "problems_seen": [
        "What day follows the day before yesterday if two days from now will be Sunday?",
        "A man is reading a book when the lights go off but even although the room is pitch dark the man goes on reading. How?",
        "Solve this anagram: AYKAWLJ"
      ]
    },
    {
      "rt": 2816.199999988079,
      "response": "100",
      "stimulus": "<center><p>How close are you towards solving this problem?</p></center>",
      "trial_type": "html-slider-response",
      "trial_index": 24,
      "time_elapsed": 172198,
      "internal_node_id": "0.0-4.2-1.6-1.6",
      "responseType": "finish",
      "participantID": "53w0r1qz5z1x08ovt3v1415fraulchmc",
      "problems_seen": [
        "What day follows the day before yesterday if two days from now will be Sunday?",
        "A man is reading a book when the lights go off but even although the room is pitch dark the man goes on reading. How?",
        "Solve this anagram: AYKAWLJ"
      ]
    },
    {
      "rt": 3999,
      "responses": "{\"Q0\":\"lockjaw\"}",
      "trial_type": "survey-text",
      "trial_index": 25,
      "time_elapsed": 176199,
      "internal_node_id": "0.0-4.2-2.2",
      "responseType": "finish",
      "participantID": "53w0r1qz5z1x08ovt3v1415fraulchmc",
      "problems_seen": [
        "What day follows the day before yesterday if two days from now will be Sunday?",
        "A man is reading a book when the lights go off but even although the room is pitch dark the man goes on reading. How?",
        "Solve this anagram: AYKAWLJ"
      ]
    },
    {
      "rt": 11137,
      "responses": "{\"Q0\":5,\"Q1\":1,\"Q2\":6}",
      "trial_type": "survey-likert",
      "trial_index": 26,
      "time_elapsed": 187337,
      "internal_node_id": "0.0-4.2-3.2-0.2",
      "responseType": "finish",
      "participantID": "53w0r1qz5z1x08ovt3v1415fraulchmc",
      "problems_seen": [
        "What day follows the day before yesterday if two days from now will be Sunday?",
        "A man is reading a book when the lights go off but even although the room is pitch dark the man goes on reading. How?",
        "Solve this anagram: AYKAWLJ"
      ]
    }
  ],
  "__v": 0
},{
  "_id": {
    "$oid": "61ec59f45de54e0004a9d7e1"
  },
  "data": {
    "responseType": "start",
    "participantID": "8f4rb3eyxxp059rgfox7qw8rqsgsqz8q",
    "problems_seen": [
      "A man is reading a book when the lights go off but even although the room is pitch dark the man goes on reading. How?",
      "Next week I am going to have lunch with my friend, visit the new art gallery, go to the Social Security office, and have my teeth checked at the dentist. My friend cannot meet me on Wednesday; the Social Security office is closed weekends; the dentist has office hours only on Tuesday, Friday, and Saturday; the art gallery is closed Tuesday, Thursday, and weekends. On what single day can I do everything I have planned?",
      "Solve this anagram: EVANG"
    ]
  },
  "__v": 0
},{
  "_id": {
    "$oid": "61ec5a435de54e0004a9d7e2"
  },
  "data": {
    "responseType": "start",
    "participantID": "8hey4h8oyg77fmnjdb83jqldg44sff9s",
    "problems_seen": [
      "Next week I am going to have lunch with my friend, visit the new art gallery, go to the Social Security office, and have my teeth checked at the dentist. My friend cannot meet me on Wednesday; the Social Security office is closed weekends; the dentist has office hours only on Tuesday, Friday, and Saturday; the art gallery is closed Tuesday, Thursday, and weekends. On what single day can I do everything I have planned?",
      "Mr. Hardy slipped and fell off a sixty-foot ladder onto the concrete floor below. However, he did not injure himself in any way. How is this possible?",
      "Solve this anagram: NCRBOA"
    ]
  },
  "__v": 0
},{
  "_id": {
    "$oid": "61ec5a755de54e0004a9d7e3"
  },
  "data": [
    {
      "rt": 9148,
      "responses": "{\"Q0\":\" I consent to participate\"}",
      "trial_type": "survey-multi-choice",
      "trial_index": 0,
      "time_elapsed": 9152,
      "internal_node_id": "0.0-0.0",
      "responseType": "finish",
      "participantID": "81vgfajvpmd7c51z4ees2wfu5fzsdywp",
      "problems_seen": [
        "Solve this anagram: AALRYS",
        "Sid Shady was working for a large construction company that was very concerned about employee theft. Someone tipped company security that Shady was the man to watch. Each night, he passed through security with a wheelbarrow full of scrap lumber, discarded electrical wires, and chunks of concrete. The security guards checked the contents daily, but could find nothing of value. What was Shady stealing?",
        "What day follows the day before yesterday if two days from now will be Sunday?"
      ]
    },
    {
      "trial_type": "call-function",
      "trial_index": 1,
      "time_elapsed": 9155,
      "internal_node_id": "0.0-1.0",
      "responseType": "finish",
      "participantID": "81vgfajvpmd7c51z4ees2wfu5fzsdywp",
      "problems_seen": [
        "Solve this anagram: AALRYS",
        "Sid Shady was working for a large construction company that was very concerned about employee theft. Someone tipped company security that Shady was the man to watch. Each night, he passed through security with a wheelbarrow full of scrap lumber, discarded electrical wires, and chunks of concrete. The security guards checked the contents daily, but could find nothing of value. What was Shady stealing?",
        "What day follows the day before yesterday if two days from now will be Sunday?"
      ]
    },
    {
      "view_history": "[{\"page_index\":0,\"viewing_time\":2422},{\"page_index\":1,\"viewing_time\":3690}]",
      "rt": 6112,
      "trial_type": "instructions",
      "trial_index": 2,
      "time_elapsed": 15267,
      "internal_node_id": "0.0-2.0",
      "responseType": "finish",
      "participantID": "81vgfajvpmd7c51z4ees2wfu5fzsdywp",
      "problems_seen": [
        "Solve this anagram: AALRYS",
        "Sid Shady was working for a large construction company that was very concerned about employee theft. Someone tipped company security that Shady was the man to watch. Each night, he passed through security with a wheelbarrow full of scrap lumber, discarded electrical wires, and chunks of concrete. The security guards checked the contents daily, but could find nothing of value. What was Shady stealing?",
        "What day follows the day before yesterday if two days from now will be Sunday?"
      ]
    },
    {
      "rt": 3780,
      "responses": "{\"Q0\":\"3 problems\"}",
      "trial_type": "survey-multi-choice",
      "trial_index": 3,
      "time_elapsed": 19048,
      "internal_node_id": "0.0-3.0",
      "responseType": "finish",
      "participantID": "81vgfajvpmd7c51z4ees2wfu5fzsdywp",
      "problems_seen": [
        "Solve this anagram: AALRYS",
        "Sid Shady was working for a large construction company that was very concerned about employee theft. Someone tipped company security that Shady was the man to watch. Each night, he passed through security with a wheelbarrow full of scrap lumber, discarded electrical wires, and chunks of concrete. The security guards checked the contents daily, but could find nothing of value. What was Shady stealing?",
        "What day follows the day before yesterday if two days from now will be Sunday?"
      ]
    },
    {
      "rt": 2974,
      "stimulus": "<blockquote>\n  <p>Now a problem will be shown to you. <br><br> Press 'v' to view the problem.</p>\n</blockquote>",
      "key_press": 86,
      "trial_type": "html-keyboard-response",
      "trial_index": 4,
      "time_elapsed": 22023,
      "internal_node_id": "0.0-4.0-0.0",
      "responseType": "finish",
      "participantID": "81vgfajvpmd7c51z4ees2wfu5fzsdywp",
      "problems_seen": [
        "Solve this anagram: AALRYS",
        "Sid Shady was working for a large construction company that was very concerned about employee theft. Someone tipped company security that Shady was the man to watch. Each night, he passed through security with a wheelbarrow full of scrap lumber, discarded electrical wires, and chunks of concrete. The security guards checked the contents daily, but could find nothing of value. What was Shady stealing?",
        "What day follows the day before yesterday if two days from now will be Sunday?"
      ]
    },
    {
      "rt": 10000,
      "responses": "{\"Q0\":\"\"}",
      "trial_type": "survey-text",
      "trial_index": 5,
      "time_elapsed": 32026,
      "internal_node_id": "0.0-4.0-1.0-0.0",
      "responseType": "finish",
      "participantID": "81vgfajvpmd7c51z4ees2wfu5fzsdywp",
      "problems_seen": [
        "Solve this anagram: AALRYS",
        "Sid Shady was working for a large construction company that was very concerned about employee theft. Someone tipped company security that Shady was the man to watch. Each night, he passed through security with a wheelbarrow full of scrap lumber, discarded electrical wires, and chunks of concrete. The security guards checked the contents daily, but could find nothing of value. What was Shady stealing?",
        "What day follows the day before yesterday if two days from now will be Sunday?"
      ]
    },
    {
      "rt": 4344,
      "response": "12",
      "stimulus": "<center><p>How close are you towards solving this problem?</p></center>",
      "trial_type": "html-slider-response",
      "trial_index": 6,
      "time_elapsed": 36372,
      "internal_node_id": "0.0-4.0-1.0-1.0",
      "responseType": "finish",
      "participantID": "81vgfajvpmd7c51z4ees2wfu5fzsdywp",
      "problems_seen": [
        "Solve this anagram: AALRYS",
        "Sid Shady was working for a large construction company that was very concerned about employee theft. Someone tipped company security that Shady was the man to watch. Each night, he passed through security with a wheelbarrow full of scrap lumber, discarded electrical wires, and chunks of concrete. The security guards checked the contents daily, but could find nothing of value. What was Shady stealing?",
        "What day follows the day before yesterday if two days from now will be Sunday?"
      ]
    },
    {
      "rt": 10001,
      "responses": "{\"Q0\":\"\"}",
      "trial_type": "survey-text",
      "trial_index": 7,
      "time_elapsed": 46374,
      "internal_node_id": "0.0-4.0-1.1-0.1",
      "responseType": "finish",
      "participantID": "81vgfajvpmd7c51z4ees2wfu5fzsdywp",
      "problems_seen": [
        "Solve this anagram: AALRYS",
        "Sid Shady was working for a large construction company that was very concerned about employee theft. Someone tipped company security that Shady was the man to watch. Each night, he passed through security with a wheelbarrow full of scrap lumber, discarded electrical wires, and chunks of concrete. The security guards checked the contents daily, but could find nothing of value. What was Shady stealing?",
        "What day follows the day before yesterday if two days from now will be Sunday?"
      ]
    },
    {
      "rt": 4914,
      "response": "100",
      "stimulus": "<center><p>How close are you towards solving this problem?</p></center>",
      "trial_type": "html-slider-response",
      "trial_index": 8,
      "time_elapsed": 51290,
      "internal_node_id": "0.0-4.0-1.1-1.1",
      "responseType": "finish",
      "participantID": "81vgfajvpmd7c51z4ees2wfu5fzsdywp",
      "problems_seen": [
        "Solve this anagram: AALRYS",
        "Sid Shady was working for a large construction company that was very concerned about employee theft. Someone tipped company security that Shady was the man to watch. Each night, he passed through security with a wheelbarrow full of scrap lumber, discarded electrical wires, and chunks of concrete. The security guards checked the contents daily, but could find nothing of value. What was Shady stealing?",
        "What day follows the day before yesterday if two days from now will be Sunday?"
      ]
    },
    {
      "rt": 8134,
      "responses": "{\"Q0\":\"DONE\"}",
      "trial_type": "survey-text",
      "trial_index": 9,
      "time_elapsed": 59424,
      "internal_node_id": "0.0-4.0-1.2-0.2",
      "responseType": "finish",
      "participantID": "81vgfajvpmd7c51z4ees2wfu5fzsdywp",
      "problems_seen": [
        "Solve this anagram: AALRYS",
        "Sid Shady was working for a large construction company that was very concerned about employee theft. Someone tipped company security that Shady was the man to watch. Each night, he passed through security with a wheelbarrow full of scrap lumber, discarded electrical wires, and chunks of concrete. The security guards checked the contents daily, but could find nothing of value. What was Shady stealing?",
        "What day follows the day before yesterday if two days from now will be Sunday?"
      ]
    },
    {
      "rt": 3913.9999999999927,
      "response": "100",
      "stimulus": "<center><p>How close are you towards solving this problem?</p></center>",
      "trial_type": "html-slider-response",
      "trial_index": 10,
      "time_elapsed": 63338,
      "internal_node_id": "0.0-4.0-1.2-1.2",
      "responseType": "finish",
      "participantID": "81vgfajvpmd7c51z4ees2wfu5fzsdywp",
      "problems_seen": [
        "Solve this anagram: AALRYS",
        "Sid Shady was working for a large construction company that was very concerned about employee theft. Someone tipped company security that Shady was the man to watch. Each night, he passed through security with a wheelbarrow full of scrap lumber, discarded electrical wires, and chunks of concrete. The security guards checked the contents daily, but could find nothing of value. What was Shady stealing?",
        "What day follows the day before yesterday if two days from now will be Sunday?"
      ]
    },
    {
      "rt": 8223,
      "responses": "{\"Q0\":\"salary\"}",
      "trial_type": "survey-text",
      "trial_index": 11,
      "time_elapsed": 71562,
      "internal_node_id": "0.0-4.0-2.0",
      "responseType": "finish",
      "participantID": "81vgfajvpmd7c51z4ees2wfu5fzsdywp",
      "problems_seen": [
        "Solve this anagram: AALRYS",
        "Sid Shady was working for a large construction company that was very concerned about employee theft. Someone tipped company security that Shady was the man to watch. Each night, he passed through security with a wheelbarrow full of scrap lumber, discarded electrical wires, and chunks of concrete. The security guards checked the contents daily, but could find nothing of value. What was Shady stealing?",
        "What day follows the day before yesterday if two days from now will be Sunday?"
      ]
    },
    {
      "rt": 18260,
      "responses": "{\"Q0\":6,\"Q1\":3,\"Q2\":6}",
      "trial_type": "survey-likert",
      "trial_index": 12,
      "time_elapsed": 89824,
      "internal_node_id": "0.0-4.0-3.0-0.0",
      "responseType": "finish",
      "participantID": "81vgfajvpmd7c51z4ees2wfu5fzsdywp",
      "problems_seen": [
        "Solve this anagram: AALRYS",
        "Sid Shady was working for a large construction company that was very concerned about employee theft. Someone tipped company security that Shady was the man to watch. Each night, he passed through security with a wheelbarrow full of scrap lumber, discarded electrical wires, and chunks of concrete. The security guards checked the contents daily, but could find nothing of value. What was Shady stealing?",
        "What day follows the day before yesterday if two days from now will be Sunday?"
      ]
    },
    {
      "rt": 2144,
      "stimulus": "<blockquote>\n  <p>Now a problem will be shown to you. <br><br> Press 'v' to view the problem.</p>\n</blockquote>",
      "key_press": 86,
      "trial_type": "html-keyboard-response",
      "trial_index": 13,
      "time_elapsed": 91968,
      "internal_node_id": "0.0-4.1-0.1",
      "responseType": "finish",
      "participantID": "81vgfajvpmd7c51z4ees2wfu5fzsdywp",
      "problems_seen": [
        "Solve this anagram: AALRYS",
        "Sid Shady was working for a large construction company that was very concerned about employee theft. Someone tipped company security that Shady was the man to watch. Each night, he passed through security with a wheelbarrow full of scrap lumber, discarded electrical wires, and chunks of concrete. The security guards checked the contents daily, but could find nothing of value. What was Shady stealing?",
        "What day follows the day before yesterday if two days from now will be Sunday?"
      ]
    },
    {
      "rt": 10001,
      "responses": "{\"Q0\":\"\"}",
      "trial_type": "survey-text",
      "trial_index": 14,
      "time_elapsed": 101970,
      "internal_node_id": "0.0-4.1-1.3-0.3",
      "responseType": "finish",
      "participantID": "81vgfajvpmd7c51z4ees2wfu5fzsdywp",
      "problems_seen": [
        "Solve this anagram: AALRYS",
        "Sid Shady was working for a large construction company that was very concerned about employee theft. Someone tipped company security that Shady was the man to watch. Each night, he passed through security with a wheelbarrow full of scrap lumber, discarded electrical wires, and chunks of concrete. The security guards checked the contents daily, but could find nothing of value. What was Shady stealing?",
        "What day follows the day before yesterday if two days from now will be Sunday?"
      ]
    },
    {
      "rt": 3925,
      "response": "0",
      "stimulus": "<center><p>How close are you towards solving this problem?</p></center>",
      "trial_type": "html-slider-response",
      "trial_index": 15,
      "time_elapsed": 105897,
      "internal_node_id": "0.0-4.1-1.3-1.3",
      "responseType": "finish",
      "participantID": "81vgfajvpmd7c51z4ees2wfu5fzsdywp",
      "problems_seen": [
        "Solve this anagram: AALRYS",
        "Sid Shady was working for a large construction company that was very concerned about employee theft. Someone tipped company security that Shady was the man to watch. Each night, he passed through security with a wheelbarrow full of scrap lumber, discarded electrical wires, and chunks of concrete. The security guards checked the contents daily, but could find nothing of value. What was Shady stealing?",
        "What day follows the day before yesterday if two days from now will be Sunday?"
      ]
    },
    {
      "rt": 10001,
      "responses": "{\"Q0\":\"\"}",
      "trial_type": "survey-text",
      "trial_index": 16,
      "time_elapsed": 115900,
      "internal_node_id": "0.0-4.1-1.4-0.4",
      "responseType": "finish",
      "participantID": "81vgfajvpmd7c51z4ees2wfu5fzsdywp",
      "problems_seen": [
        "Solve this anagram: AALRYS",
        "Sid Shady was working for a large construction company that was very concerned about employee theft. Someone tipped company security that Shady was the man to watch. Each night, he passed through security with a wheelbarrow full of scrap lumber, discarded electrical wires, and chunks of concrete. The security guards checked the contents daily, but could find nothing of value. What was Shady stealing?",
        "What day follows the day before yesterday if two days from now will be Sunday?"
      ]
    },
    {
      "rt": 3484,
      "response": "0",
      "stimulus": "<center><p>How close are you towards solving this problem?</p></center>",
      "trial_type": "html-slider-response",
      "trial_index": 17,
      "time_elapsed": 119386,
      "internal_node_id": "0.0-4.1-1.4-1.4",
      "responseType": "finish",
      "participantID": "81vgfajvpmd7c51z4ees2wfu5fzsdywp",
      "problems_seen": [
        "Solve this anagram: AALRYS",
        "Sid Shady was working for a large construction company that was very concerned about employee theft. Someone tipped company security that Shady was the man to watch. Each night, he passed through security with a wheelbarrow full of scrap lumber, discarded electrical wires, and chunks of concrete. The security guards checked the contents daily, but could find nothing of value. What was Shady stealing?",
        "What day follows the day before yesterday if two days from now will be Sunday?"
      ]
    },
    {
      "rt": 10001,
      "responses": "{\"Q0\":\"\"}",
      "trial_type": "survey-text",
      "trial_index": 18,
      "time_elapsed": 129388,
      "internal_node_id": "0.0-4.1-1.5-0.5",
      "responseType": "finish",
      "participantID": "81vgfajvpmd7c51z4ees2wfu5fzsdywp",
      "problems_seen": [
        "Solve this anagram: AALRYS",
        "Sid Shady was working for a large construction company that was very concerned about employee theft. Someone tipped company security that Shady was the man to watch. Each night, he passed through security with a wheelbarrow full of scrap lumber, discarded electrical wires, and chunks of concrete. The security guards checked the contents daily, but could find nothing of value. What was Shady stealing?",
        "What day follows the day before yesterday if two days from now will be Sunday?"
      ]
    },
    {
      "rt": 4798.999999999985,
      "response": "53",
      "stimulus": "<center><p>How close are you towards solving this problem?</p></center>",
      "trial_type": "html-slider-response",
      "trial_index": 19,
      "time_elapsed": 134191,
      "internal_node_id": "0.0-4.1-1.5-1.5",
      "responseType": "finish",
      "participantID": "81vgfajvpmd7c51z4ees2wfu5fzsdywp",
      "problems_seen": [
        "Solve this anagram: AALRYS",
        "Sid Shady was working for a large construction company that was very concerned about employee theft. Someone tipped company security that Shady was the man to watch. Each night, he passed through security with a wheelbarrow full of scrap lumber, discarded electrical wires, and chunks of concrete. The security guards checked the contents daily, but could find nothing of value. What was Shady stealing?",
        "What day follows the day before yesterday if two days from now will be Sunday?"
      ]
    },
    {
      "rt": 10002,
      "responses": "{\"Q0\":\"\"}",
      "trial_type": "survey-text",
      "trial_index": 20,
      "time_elapsed": 144194,
      "internal_node_id": "0.0-4.1-1.6-0.6",
      "responseType": "finish",
      "participantID": "81vgfajvpmd7c51z4ees2wfu5fzsdywp",
      "problems_seen": [
        "Solve this anagram: AALRYS",
        "Sid Shady was working for a large construction company that was very concerned about employee theft. Someone tipped company security that Shady was the man to watch. Each night, he passed through security with a wheelbarrow full of scrap lumber, discarded electrical wires, and chunks of concrete. The security guards checked the contents daily, but could find nothing of value. What was Shady stealing?",
        "What day follows the day before yesterday if two days from now will be Sunday?"
      ]
    },
    {
      "rt": 3777,
      "response": "72",
      "stimulus": "<center><p>How close are you towards solving this problem?</p></center>",
      "trial_type": "html-slider-response",
      "trial_index": 21,
      "time_elapsed": 147972,
      "internal_node_id": "0.0-4.1-1.6-1.6",
