[{
  "_id": {
    "$oid": "620ad7268141480004e893c5"
  },
  "data": {
    "responseType": "start",
    "participantID": "3yoesb4jwhd7a11tgoumo4bgqyqanlgh",
    "problems_seen": [
      "Solve this anagram: AYKAWLJ",
      "The following verse spells out a word. I am a food for you and me. My first letter is in pat but not in tar. My second letter is in stream but not in smart. My third letter is in giraffe but not in fridge. My fourth letter is in treat but not in absent. What is the word that this verse described?"
    ]
  },
  "__v": 0
},{
  "_id": {
    "$oid": "620ad7428141480004e893c6"
  },
  "data": {
    "responseType": "start",
    "participantID": "n64lhmqz3cc3q5mxal5wnnh4ucbyr1en",
    "problems_seen": [
      "Solve this anagram: MARNOD",
      "A group of soldiers were standing facing west. Their sergeant shouted at them: Right turn! U-turn! Left turn! U-turn! Right turn! U-turn! Left turn! Right turn! In which direction are they now facing?"
    ]
  },
  "__v": 0
},{
  "_id": {
    "$oid": "620ad8008141480004e893c7"
  },
  "data": [
    {
      "rt": 5383,
      "responses": "{\"Q0\":\" I consent to participate\"}",
      "trial_type": "survey-multi-choice",
      "trial_index": 0,
      "time_elapsed": 5406,
      "internal_node_id": "0.0-0.0",
      "responseType": "finish",
      "participantID": "n64lhmqz3cc3q5mxal5wnnh4ucbyr1en",
      "problems_seen": [
        "Solve this anagram: MARNOD",
        "A group of soldiers were standing facing west. Their sergeant shouted at them: Right turn! U-turn! Left turn! U-turn! Right turn! U-turn! Left turn! Right turn! In which direction are they now facing?"
      ]
    },
    {
      "trial_type": "call-function",
      "trial_index": 1,
      "time_elapsed": 5420,
      "internal_node_id": "0.0-1.0",
      "responseType": "finish",
      "participantID": "n64lhmqz3cc3q5mxal5wnnh4ucbyr1en",
      "problems_seen": [
        "Solve this anagram: MARNOD",
        "A group of soldiers were standing facing west. Their sergeant shouted at them: Right turn! U-turn! Left turn! U-turn! Right turn! U-turn! Left turn! Right turn! In which direction are they now facing?"
      ]
    },
    {
      "view_history": "[{\"page_index\":0,\"viewing_time\":3356},{\"page_index\":1,\"viewing_time\":12834},{\"page_index\":2,\"viewing_time\":4170}]",
      "rt": 20361,
      "trial_type": "instructions",
      "trial_index": 2,
      "time_elapsed": 25781,
      "internal_node_id": "0.0-2.0",
      "responseType": "finish",
      "participantID": "n64lhmqz3cc3q5mxal5wnnh4ucbyr1en",
      "problems_seen": [
        "Solve this anagram: MARNOD",
        "A group of soldiers were standing facing west. Their sergeant shouted at them: Right turn! U-turn! Left turn! U-turn! Right turn! U-turn! Left turn! Right turn! In which direction are they now facing?"
      ]
    },
    {
      "rt": 24157,
      "responses": "{\"Q0\":\"DONE when the problem is solved and SKIP when I want to move on the next problem\"}",
      "trial_type": "survey-multi-choice",
      "trial_index": 3,
      "time_elapsed": 49941,
      "internal_node_id": "0.0-3.0",
      "responseType": "finish",
      "participantID": "n64lhmqz3cc3q5mxal5wnnh4ucbyr1en",
      "problems_seen": [
        "Solve this anagram: MARNOD",
        "A group of soldiers were standing facing west. Their sergeant shouted at them: Right turn! U-turn! Left turn! U-turn! Right turn! U-turn! Left turn! Right turn! In which direction are they now facing?"
      ]
    },
    {
      "rt": 3154,
      "stimulus": "<blockquote>\n  <p>Now a problem will be shown to you. <br><br> Press 'v' to view the problem.</p>\n</blockquote>",
      "key_press": 86,
      "trial_type": "html-keyboard-response",
      "trial_index": 4,
      "time_elapsed": 53110,
      "internal_node_id": "0.0-4.0-0.0",
      "responseType": "finish",
      "participantID": "n64lhmqz3cc3q5mxal5wnnh4ucbyr1en",
      "problems_seen": [
        "Solve this anagram: MARNOD",
        "A group of soldiers were standing facing west. Their sergeant shouted at them: Right turn! U-turn! Left turn! U-turn! Right turn! U-turn! Left turn! Right turn! In which direction are they now facing?"
      ]
    },
    {
      "rt": 7003,
      "responses": "{\"Q0\":\"\"}",
      "trial_type": "survey-text",
      "trial_index": 5,
      "time_elapsed": 60125,
      "internal_node_id": "0.0-4.0-1.0-0.0",
      "responseType": "finish",
      "participantID": "n64lhmqz3cc3q5mxal5wnnh4ucbyr1en",
      "problems_seen": [
        "Solve this anagram: MARNOD",
        "A group of soldiers were standing facing west. Their sergeant shouted at them: Right turn! U-turn! Left turn! U-turn! Right turn! U-turn! Left turn! Right turn! In which direction are they now facing?"
      ]
    },
    {
      "rt": 12666.399999856949,
      "response": "42",
      "stimulus": "<center><p>How close are you towards solving this problem?</p></center>",
      "trial_type": "html-slider-response",
      "trial_index": 6,
      "time_elapsed": 72794,
      "internal_node_id": "0.0-4.0-1.0-1.0",
      "responseType": "finish",
      "participantID": "n64lhmqz3cc3q5mxal5wnnh4ucbyr1en",
      "problems_seen": [
        "Solve this anagram: MARNOD",
        "A group of soldiers were standing facing west. Their sergeant shouted at them: Right turn! U-turn! Left turn! U-turn! Right turn! U-turn! Left turn! Right turn! In which direction are they now facing?"
      ]
    },
    {
      "rt": 7002,
      "responses": "{\"Q0\":\"\"}",
      "trial_type": "survey-text",
      "trial_index": 7,
      "time_elapsed": 79800,
      "internal_node_id": "0.0-4.0-1.1-0.1",
      "responseType": "finish",
      "participantID": "n64lhmqz3cc3q5mxal5wnnh4ucbyr1en",
      "problems_seen": [
        "Solve this anagram: MARNOD",
        "A group of soldiers were standing facing west. Their sergeant shouted at them: Right turn! U-turn! Left turn! U-turn! Right turn! U-turn! Left turn! Right turn! In which direction are they now facing?"
      ]
    },
    {
      "rt": 6408.5,
      "response": "42",
      "stimulus": "<center><p>How close are you towards solving this problem?</p></center>",
      "trial_type": "html-slider-response",
      "trial_index": 8,
      "time_elapsed": 86209,
      "internal_node_id": "0.0-4.0-1.1-1.1",
      "responseType": "finish",
      "participantID": "n64lhmqz3cc3q5mxal5wnnh4ucbyr1en",
      "problems_seen": [
        "Solve this anagram: MARNOD",
        "A group of soldiers were standing facing west. Their sergeant shouted at them: Right turn! U-turn! Left turn! U-turn! Right turn! U-turn! Left turn! Right turn! In which direction are they now facing?"
      ]
    },
    {
      "rt": 7002,
      "responses": "{\"Q0\":\"\"}",
      "trial_type": "survey-text",
      "trial_index": 9,
      "time_elapsed": 93213,
      "internal_node_id": "0.0-4.0-1.2-0.2",
      "responseType": "finish",
      "participantID": "n64lhmqz3cc3q5mxal5wnnh4ucbyr1en",
      "problems_seen": [
        "Solve this anagram: MARNOD",
        "A group of soldiers were standing facing west. Their sergeant shouted at them: Right turn! U-turn! Left turn! U-turn! Right turn! U-turn! Left turn! Right turn! In which direction are they now facing?"
      ]
    },
    {
      "rt": 13839.799999952316,
      "response": "43",
      "stimulus": "<center><p>How close are you towards solving this problem?</p></center>",
      "trial_type": "html-slider-response",
      "trial_index": 10,
      "time_elapsed": 107054,
      "internal_node_id": "0.0-4.0-1.2-1.2",
      "responseType": "finish",
      "participantID": "n64lhmqz3cc3q5mxal5wnnh4ucbyr1en",
      "problems_seen": [
        "Solve this anagram: MARNOD",
        "A group of soldiers were standing facing west. Their sergeant shouted at them: Right turn! U-turn! Left turn! U-turn! Right turn! U-turn! Left turn! Right turn! In which direction are they now facing?"
      ]
    },
    {
      "rt": 7000,
      "responses": "{\"Q0\":\"\"}",
      "trial_type": "survey-text",
      "trial_index": 11,
      "time_elapsed": 114058,
      "internal_node_id": "0.0-4.0-1.3-0.3",
      "responseType": "finish",
      "participantID": "n64lhmqz3cc3q5mxal5wnnh4ucbyr1en",
      "problems_seen": [
        "Solve this anagram: MARNOD",
        "A group of soldiers were standing facing west. Their sergeant shouted at them: Right turn! U-turn! Left turn! U-turn! Right turn! U-turn! Left turn! Right turn! In which direction are they now facing?"
      ]
    },
    {
      "rt": 2844.899999856949,
      "response": "100",
      "stimulus": "<center><p>How close are you towards solving this problem?</p></center>",
      "trial_type": "html-slider-response",
      "trial_index": 12,
      "time_elapsed": 116904,
      "internal_node_id": "0.0-4.0-1.3-1.3",
      "responseType": "finish",
      "participantID": "n64lhmqz3cc3q5mxal5wnnh4ucbyr1en",
      "problems_seen": [
        "Solve this anagram: MARNOD",
        "A group of soldiers were standing facing west. Their sergeant shouted at them: Right turn! U-turn! Left turn! U-turn! Right turn! U-turn! Left turn! Right turn! In which direction are they now facing?"
      ]
    },
    {
      "rt": 2384,
      "responses": "{\"Q0\":\"random\"}",
      "trial_type": "survey-text",
      "trial_index": 13,
      "time_elapsed": 119289,
      "internal_node_id": "0.0-4.0-1.4-0.4",
      "responseType": "finish",
      "participantID": "n64lhmqz3cc3q5mxal5wnnh4ucbyr1en",
      "problems_seen": [
        "Solve this anagram: MARNOD",
        "A group of soldiers were standing facing west. Their sergeant shouted at them: Right turn! U-turn! Left turn! U-turn! Right turn! U-turn! Left turn! Right turn! In which direction are they now facing?"
      ]
    },
    {
      "rt": 3077.7999999523163,
      "response": "100",
      "stimulus": "<center><p>How close are you towards solving this problem?</p></center>",
      "trial_type": "html-slider-response",
      "trial_index": 14,
      "time_elapsed": 122370,
      "internal_node_id": "0.0-4.0-1.4-1.4",
      "responseType": "finish",
      "participantID": "n64lhmqz3cc3q5mxal5wnnh4ucbyr1en",
      "problems_seen": [
        "Solve this anagram: MARNOD",
        "A group of soldiers were standing facing west. Their sergeant shouted at them: Right turn! U-turn! Left turn! U-turn! Right turn! U-turn! Left turn! Right turn! In which direction are they now facing?"
      ]
    },
    {
      "rt": 5933,
      "responses": "{\"Q0\":\"DONE\"}",
      "trial_type": "survey-text",
      "trial_index": 15,
      "time_elapsed": 128305,
      "internal_node_id": "0.0-4.0-1.5-0.5",
      "responseType": "finish",
      "participantID": "n64lhmqz3cc3q5mxal5wnnh4ucbyr1en",
      "problems_seen": [
        "Solve this anagram: MARNOD",
        "A group of soldiers were standing facing west. Their sergeant shouted at them: Right turn! U-turn! Left turn! U-turn! Right turn! U-turn! Left turn! Right turn! In which direction are they now facing?"
      ]
    },
    {
      "rt": 2800.2000000476837,
      "response": "100",
      "stimulus": "<center><p>How close are you towards solving this problem?</p></center>",
      "trial_type": "html-slider-response",
      "trial_index": 16,
      "time_elapsed": 131107,
      "internal_node_id": "0.0-4.0-1.5-1.5",
      "responseType": "finish",
      "participantID": "n64lhmqz3cc3q5mxal5wnnh4ucbyr1en",
      "problems_seen": [
        "Solve this anagram: MARNOD",
        "A group of soldiers were standing facing west. Their sergeant shouted at them: Right turn! U-turn! Left turn! U-turn! Right turn! U-turn! Left turn! Right turn! In which direction are they now facing?"
      ]
    },
    {
      "rt": 3712,
      "responses": "{\"Q0\":\"random\"}",
      "trial_type": "survey-text",
      "trial_index": 17,
      "time_elapsed": 134820,
      "internal_node_id": "0.0-4.0-2.0",
      "responseType": "finish",
      "participantID": "n64lhmqz3cc3q5mxal5wnnh4ucbyr1en",
      "problems_seen": [
        "Solve this anagram: MARNOD",
        "A group of soldiers were standing facing west. Their sergeant shouted at them: Right turn! U-turn! Left turn! U-turn! Right turn! U-turn! Left turn! Right turn! In which direction are they now facing?"
      ]
    },
    {
      "rt": 10532,
      "responses": "{\"Q0\":6,\"Q1\":4,\"Q2\":6}",
      "trial_type": "survey-likert",
      "trial_index": 18,
      "time_elapsed": 145356,
      "internal_node_id": "0.0-4.0-3.0-0.0",
      "responseType": "finish",
      "participantID": "n64lhmqz3cc3q5mxal5wnnh4ucbyr1en",
      "problems_seen": [
        "Solve this anagram: MARNOD",
        "A group of soldiers were standing facing west. Their sergeant shouted at them: Right turn! U-turn! Left turn! U-turn! Right turn! U-turn! Left turn! Right turn! In which direction are they now facing?"
      ]
    },
    {
      "rt": 1769,
      "stimulus": "<blockquote>\n  <p>Now a problem will be shown to you. <br><br> Press 'v' to view the problem.</p>\n</blockquote>",
      "key_press": 86,
      "trial_type": "html-keyboard-response",
      "trial_index": 19,
      "time_elapsed": 147137,
      "internal_node_id": "0.0-4.1-0.1",
      "responseType": "finish",
      "participantID": "n64lhmqz3cc3q5mxal5wnnh4ucbyr1en",
      "problems_seen": [
        "Solve this anagram: MARNOD",
        "A group of soldiers were standing facing west. Their sergeant shouted at them: Right turn! U-turn! Left turn! U-turn! Right turn! U-turn! Left turn! Right turn! In which direction are they now facing?"
      ]
    },
    {
      "rt": 7005,
      "responses": "{\"Q0\":\"\"}",
      "trial_type": "survey-text",
      "trial_index": 20,
      "time_elapsed": 154153,
      "internal_node_id": "0.0-4.1-1.6-0.6",
      "responseType": "finish",
      "participantID": "n64lhmqz3cc3q5mxal5wnnh4ucbyr1en",
      "problems_seen": [
        "Solve this anagram: MARNOD",
        "A group of soldiers were standing facing west. Their sergeant shouted at them: Right turn! U-turn! Left turn! U-turn! Right turn! U-turn! Left turn! Right turn! In which direction are they now facing?"
      ]
    },
    {
      "rt": 6130.600000143051,
      "response": "41",
      "stimulus": "<center><p>How close are you towards solving this problem?</p></center>",
      "trial_type": "html-slider-response",
      "trial_index": 21,
      "time_elapsed": 160285,
      "internal_node_id": "0.0-4.1-1.6-1.6",
      "responseType": "finish",
      "participantID": "n64lhmqz3cc3q5mxal5wnnh4ucbyr1en",
      "problems_seen": [
        "Solve this anagram: MARNOD",
        "A group of soldiers were standing facing west. Their sergeant shouted at them: Right turn! U-turn! Left turn! U-turn! Right turn! U-turn! Left turn! Right turn! In which direction are they now facing?"
      ]
    },
    {
      "rt": 7002,
      "responses": "{\"Q0\":\"\"}",
      "trial_type": "survey-text",
      "trial_index": 22,
      "time_elapsed": 167290,
      "internal_node_id": "0.0-4.1-1.7-0.7",
      "responseType": "finish",
      "participantID": "n64lhmqz3cc3q5mxal5wnnh4ucbyr1en",
      "problems_seen": [
        "Solve this anagram: MARNOD",
        "A group of soldiers were standing facing west. Their sergeant shouted at them: Right turn! U-turn! Left turn! U-turn! Right turn! U-turn! Left turn! Right turn! In which direction are they now facing?"
      ]
    },
    {
      "rt": 3878,
      "response": "78",
      "stimulus": "<center><p>How close are you towards solving this problem?</p></center>",
      "trial_type": "html-slider-response",
      "trial_index": 23,
      "time_elapsed": 171170,
      "internal_node_id": "0.0-4.1-1.7-1.7",
      "responseType": "finish",
      "participantID": "n64lhmqz3cc3q5mxal5wnnh4ucbyr1en",
      "problems_seen": [
        "Solve this anagram: MARNOD",
        "A group of soldiers were standing facing west. Their sergeant shouted at them: Right turn! U-turn! Left turn! U-turn! Right turn! U-turn! Left turn! Right turn! In which direction are they now facing?"
      ]
    },
    {
      "rt": 3358,
      "responses": "{\"Q0\":\"done\"}",
      "trial_type": "survey-text",
      "trial_index": 24,
      "time_elapsed": 174530,
      "internal_node_id": "0.0-4.1-1.8-0.8",
      "responseType": "finish",
      "participantID": "n64lhmqz3cc3q5mxal5wnnh4ucbyr1en",
      "problems_seen": [
        "Solve this anagram: MARNOD",
        "A group of soldiers were standing facing west. Their sergeant shouted at them: Right turn! U-turn! Left turn! U-turn! Right turn! U-turn! Left turn! Right turn! In which direction are they now facing?"
      ]
    },
    {
      "rt": 2862.0999999046326,
      "response": "94",
      "stimulus": "<center><p>How close are you towards solving this problem?</p></center>",
      "trial_type": "html-slider-response",
      "trial_index": 25,
      "time_elapsed": 177394,
      "internal_node_id": "0.0-4.1-1.8-1.8",
      "responseType": "finish",
      "participantID": "n64lhmqz3cc3q5mxal5wnnh4ucbyr1en",
      "problems_seen": [
        "Solve this anagram: MARNOD",
        "A group of soldiers were standing facing west. Their sergeant shouted at them: Right turn! U-turn! Left turn! U-turn! Right turn! U-turn! Left turn! Right turn! In which direction are they now facing?"
      ]
    },
    {
      "rt": 2767,
      "responses": "{\"Q0\":\"west\"}",
      "trial_type": "survey-text",
      "trial_index": 26,
      "time_elapsed": 180164,
      "internal_node_id": "0.0-4.1-2.1",
      "responseType": "finish",
      "participantID": "n64lhmqz3cc3q5mxal5wnnh4ucbyr1en",
      "problems_seen": [
        "Solve this anagram: MARNOD",
        "A group of soldiers were standing facing west. Their sergeant shouted at them: Right turn! U-turn! Left turn! U-turn! Right turn! U-turn! Left turn! Right turn! In which direction are they now facing?"
      ]
    },
    {
      "rt": 15272,
      "responses": "{\"Q0\":5,\"Q1\":3,\"Q2\":3}",
      "trial_type": "survey-likert",
      "trial_index": 27,
      "time_elapsed": 195438,
      "internal_node_id": "0.0-4.1-3.1-0.1",
      "responseType": "finish",
      "participantID": "n64lhmqz3cc3q5mxal5wnnh4ucbyr1en",
      "problems_seen": [
        "Solve this anagram: MARNOD",
        "A group of soldiers were standing facing west. Their sergeant shouted at them: Right turn! U-turn! Left turn! U-turn! Right turn! U-turn! Left turn! Right turn! In which direction are they now facing?"
      ]
    }
  ],
  "__v": 0
},{
  "_id": {
    "$oid": "620ad87b8141480004e893c8"
  },
  "data": [
    {
      "rt": 4398,
      "responses": "{\"Q0\":\" I consent to participate\"}",
      "trial_type": "survey-multi-choice",
      "trial_index": 0,
      "time_elapsed": 4405,
      "internal_node_id": "0.0-0.0",
      "responseType": "finish",
      "participantID": "3yoesb4jwhd7a11tgoumo4bgqyqanlgh",
      "problems_seen": [
        "Solve this anagram: AYKAWLJ",
        "The following verse spells out a word. I am a food for you and me. My first letter is in pat but not in tar. My second letter is in stream but not in smart. My third letter is in giraffe but not in fridge. My fourth letter is in treat but not in absent. What is the word that this verse described?"
      ]
    },
    {
      "trial_type": "call-function",
      "trial_index": 1,
      "time_elapsed": 4409,
      "internal_node_id": "0.0-1.0",
      "responseType": "finish",
      "participantID": "3yoesb4jwhd7a11tgoumo4bgqyqanlgh",
      "problems_seen": [
        "Solve this anagram: AYKAWLJ",
        "The following verse spells out a word. I am a food for you and me. My first letter is in pat but not in tar. My second letter is in stream but not in smart. My third letter is in giraffe but not in fridge. My fourth letter is in treat but not in absent. What is the word that this verse described?"
      ]
    },
    {
      "view_history": "[{\"page_index\":0,\"viewing_time\":2980},{\"page_index\":1,\"viewing_time\":14853},{\"page_index\":2,\"viewing_time\":5623}]",
      "rt": 23457,
      "trial_type": "instructions",
      "trial_index": 2,
      "time_elapsed": 27866,
      "internal_node_id": "0.0-2.0",
      "responseType": "finish",
      "participantID": "3yoesb4jwhd7a11tgoumo4bgqyqanlgh",
      "problems_seen": [
        "Solve this anagram: AYKAWLJ",
        "The following verse spells out a word. I am a food for you and me. My first letter is in pat but not in tar. My second letter is in stream but not in smart. My third letter is in giraffe but not in fridge. My fourth letter is in treat but not in absent. What is the word that this verse described?"
      ]
    },
    {
      "rt": 10549,
      "responses": "{\"Q0\":\"DONE when the problem is solved and SKIP when I want to move on the next problem\"}",
      "trial_type": "survey-multi-choice",
      "trial_index": 3,
      "time_elapsed": 38420,
      "internal_node_id": "0.0-3.0",
      "responseType": "finish",
      "participantID": "3yoesb4jwhd7a11tgoumo4bgqyqanlgh",
      "problems_seen": [
        "Solve this anagram: AYKAWLJ",
        "The following verse spells out a word. I am a food for you and me. My first letter is in pat but not in tar. My second letter is in stream but not in smart. My third letter is in giraffe but not in fridge. My fourth letter is in treat but not in absent. What is the word that this verse described?"
      ]
    },
    {
      "rt": 2302,
      "stimulus": "<blockquote>\n  <p>Now a problem will be shown to you. <br><br> Press 'v' to view the problem.</p>\n</blockquote>",
      "key_press": 86,
      "trial_type": "html-keyboard-response",
      "trial_index": 4,
      "time_elapsed": 40724,
      "internal_node_id": "0.0-4.0-0.0",
      "responseType": "finish",
      "participantID": "3yoesb4jwhd7a11tgoumo4bgqyqanlgh",
      "problems_seen": [
        "Solve this anagram: AYKAWLJ",
        "The following verse spells out a word. I am a food for you and me. My first letter is in pat but not in tar. My second letter is in stream but not in smart. My third letter is in giraffe but not in fridge. My fourth letter is in treat but not in absent. What is the word that this verse described?"
      ]
    },
    {
      "rt": 7002,
      "responses": "{\"Q0\":\"\"}",
      "trial_type": "survey-text",
      "trial_index": 5,
      "time_elapsed": 47736,
      "internal_node_id": "0.0-4.0-1.0-0.0",
      "responseType": "finish",
      "participantID": "3yoesb4jwhd7a11tgoumo4bgqyqanlgh",
      "problems_seen": [
        "Solve this anagram: AYKAWLJ",
        "The following verse spells out a word. I am a food for you and me. My first letter is in pat but not in tar. My second letter is in stream but not in smart. My third letter is in giraffe but not in fridge. My fourth letter is in treat but not in absent. What is the word that this verse described?"
      ]
    },
    {
      "rt": 4317,
      "response": "0",
      "stimulus": "<center><p>How close are you towards solving this problem?</p></center>",
      "trial_type": "html-slider-response",
      "trial_index": 6,
      "time_elapsed": 52056,
      "internal_node_id": "0.0-4.0-1.0-1.0",
      "responseType": "finish",
      "participantID": "3yoesb4jwhd7a11tgoumo4bgqyqanlgh",
      "problems_seen": [
        "Solve this anagram: AYKAWLJ",
        "The following verse spells out a word. I am a food for you and me. My first letter is in pat but not in tar. My second letter is in stream but not in smart. My third letter is in giraffe but not in fridge. My fourth letter is in treat but not in absent. What is the word that this verse described?"
      ]
    },
    {
      "rt": 7000,
      "responses": "{\"Q0\":\"\"}",
      "trial_type": "survey-text",
      "trial_index": 7,
      "time_elapsed": 59068,
      "internal_node_id": "0.0-4.0-1.1-0.1",
      "responseType": "finish",
      "participantID": "3yoesb4jwhd7a11tgoumo4bgqyqanlgh",
      "problems_seen": [
        "Solve this anagram: AYKAWLJ",
        "The following verse spells out a word. I am a food for you and me. My first letter is in pat but not in tar. My second letter is in stream but not in smart. My third letter is in giraffe but not in fridge. My fourth letter is in treat but not in absent. What is the word that this verse described?"
      ]
    },
    {
      "rt": 7980.5,
      "response": "0",
      "stimulus": "<center><p>How close are you towards solving this problem?</p></center>",
      "trial_type": "html-slider-response",
      "trial_index": 8,
      "time_elapsed": 67050,
      "internal_node_id": "0.0-4.0-1.1-1.1",
      "responseType": "finish",
      "participantID": "3yoesb4jwhd7a11tgoumo4bgqyqanlgh",
      "problems_seen": [
        "Solve this anagram: AYKAWLJ",
        "The following verse spells out a word. I am a food for you and me. My first letter is in pat but not in tar. My second letter is in stream but not in smart. My third letter is in giraffe but not in fridge. My fourth letter is in treat but not in absent. What is the word that this verse described?"
      ]
    },
    {
      "rt": 7000,
      "responses": "{\"Q0\":\"\"}",
      "trial_type": "survey-text",
      "trial_index": 9,
      "time_elapsed": 74054,
      "internal_node_id": "0.0-4.0-1.2-0.2",
      "responseType": "finish",
      "participantID": "3yoesb4jwhd7a11tgoumo4bgqyqanlgh",
      "problems_seen": [
        "Solve this anagram: AYKAWLJ",
        "The following verse spells out a word. I am a food for you and me. My first letter is in pat but not in tar. My second letter is in stream but not in smart. My third letter is in giraffe but not in fridge. My fourth letter is in treat but not in absent. What is the word that this verse described?"
      ]
    },
    {
      "rt": 5858.4000000059605,
      "response": "0",
      "stimulus": "<center><p>How close are you towards solving this problem?</p></center>",
      "trial_type": "html-slider-response",
      "trial_index": 10,
      "time_elapsed": 79914,
      "internal_node_id": "0.0-4.0-1.2-1.2",
      "responseType": "finish",
      "participantID": "3yoesb4jwhd7a11tgoumo4bgqyqanlgh",
      "problems_seen": [
        "Solve this anagram: AYKAWLJ",
        "The following verse spells out a word. I am a food for you and me. My first letter is in pat but not in tar. My second letter is in stream but not in smart. My third letter is in giraffe but not in fridge. My fourth letter is in treat but not in absent. What is the word that this verse described?"
      ]
    },
    {
      "rt": 7001,
      "responses": "{\"Q0\":\"\"}",
      "trial_type": "survey-text",
      "trial_index": 11,
      "time_elapsed": 86917,
      "internal_node_id": "0.0-4.0-1.3-0.3",
      "responseType": "finish",
      "participantID": "3yoesb4jwhd7a11tgoumo4bgqyqanlgh",
      "problems_seen": [
        "Solve this anagram: AYKAWLJ",
        "The following verse spells out a word. I am a food for you and me. My first letter is in pat but not in tar. My second letter is in stream but not in smart. My third letter is in giraffe but not in fridge. My fourth letter is in treat but not in absent. What is the word that this verse described?"
      ]
    },
    {
      "rt": 3337.2000000178814,
      "response": "0",
      "stimulus": "<center><p>How close are you towards solving this problem?</p></center>",
      "trial_type": "html-slider-response",
      "trial_index": 12,
      "time_elapsed": 90256,
      "internal_node_id": "0.0-4.0-1.3-1.3",
      "responseType": "finish",
      "participantID": "3yoesb4jwhd7a11tgoumo4bgqyqanlgh",
      "problems_seen": [
        "Solve this anagram: AYKAWLJ",
        "The following verse spells out a word. I am a food for you and me. My first letter is in pat but not in tar. My second letter is in stream but not in smart. My third letter is in giraffe but not in fridge. My fourth letter is in treat but not in absent. What is the word that this verse described?"
      ]
    },
    {
      "rt": 7000,
      "responses": "{\"Q0\":\"\"}",
      "trial_type": "survey-text",
      "trial_index": 13,
      "time_elapsed": 97259,
      "internal_node_id": "0.0-4.0-1.4-0.4",
      "responseType": "finish",
      "participantID": "3yoesb4jwhd7a11tgoumo4bgqyqanlgh",
      "problems_seen": [
        "Solve this anagram: AYKAWLJ",
        "The following verse spells out a word. I am a food for you and me. My first letter is in pat but not in tar. My second letter is in stream but not in smart. My third letter is in giraffe but not in fridge. My fourth letter is in treat but not in absent. What is the word that this verse described?"
      ]
    },
    {
      "rt": 8768.300000011921,
      "response": "0",
      "stimulus": "<center><p>How close are you towards solving this problem?</p></center>",
      "trial_type": "html-slider-response",
      "trial_index": 14,
      "time_elapsed": 106029,
      "internal_node_id": "0.0-4.0-1.4-1.4",
      "responseType": "finish",
      "participantID": "3yoesb4jwhd7a11tgoumo4bgqyqanlgh",
      "problems_seen": [
        "Solve this anagram: AYKAWLJ",
        "The following verse spells out a word. I am a food for you and me. My first letter is in pat but not in tar. My second letter is in stream but not in smart. My third letter is in giraffe but not in fridge. My fourth letter is in treat but not in absent. What is the word that this verse described?"
      ]
    },
    {
      "rt": 7003,
      "responses": "{\"Q0\":\"\"}",
      "trial_type": "survey-text",
      "trial_index": 15,
      "time_elapsed": 113033,
      "internal_node_id": "0.0-4.0-1.5-0.5",
      "responseType": "finish",
      "participantID": "3yoesb4jwhd7a11tgoumo4bgqyqanlgh",
      "problems_seen": [
        "Solve this anagram: AYKAWLJ",
        "The following verse spells out a word. I am a food for you and me. My first letter is in pat but not in tar. My second letter is in stream but not in smart. My third letter is in giraffe but not in fridge. My fourth letter is in treat but not in absent. What is the word that this verse described?"
      ]
    },
    {
      "rt": 7924.0999999940395,
      "response": "0",
      "stimulus": "<center><p>How close are you towards solving this problem?</p></center>",
      "trial_type": "html-slider-response",
      "trial_index": 16,
      "time_elapsed": 120959,
      "internal_node_id": "0.0-4.0-1.5-1.5",
      "responseType": "finish",
      "participantID": "3yoesb4jwhd7a11tgoumo4bgqyqanlgh",
      "problems_seen": [
        "Solve this anagram: AYKAWLJ",
        "The following verse spells out a word. I am a food for you and me. My first letter is in pat but not in tar. My second letter is in stream but not in smart. My third letter is in giraffe but not in fridge. My fourth letter is in treat but not in absent. What is the word that this verse described?"
      ]
    },
    {
      "rt": 7001,
      "responses": "{\"Q0\":\"\"}",
      "trial_type": "survey-text",
      "trial_index": 17,
      "time_elapsed": 127975,
      "internal_node_id": "0.0-4.0-1.6-0.6",
      "responseType": "finish",
      "participantID": "3yoesb4jwhd7a11tgoumo4bgqyqanlgh",
      "problems_seen": [
        "Solve this anagram: AYKAWLJ",
        "The following verse spells out a word. I am a food for you and me. My first letter is in pat but not in tar. My second letter is in stream but not in smart. My third letter is in giraffe but not in fridge. My fourth letter is in treat but not in absent. What is the word that this verse described?"
      ]
    },
    {
      "rt": 14660.200000017881,
      "response": "0",
      "stimulus": "<center><p>How close are you towards solving this problem?</p></center>",
      "trial_type": "html-slider-response",
      "trial_index": 18,
      "time_elapsed": 142637,
      "internal_node_id": "0.0-4.0-1.6-1.6",
      "responseType": "finish",
      "participantID": "3yoesb4jwhd7a11tgoumo4bgqyqanlgh",
      "problems_seen": [
        "Solve this anagram: AYKAWLJ",
        "The following verse spells out a word. I am a food for you and me. My first letter is in pat but not in tar. My second letter is in stream but not in smart. My third letter is in giraffe but not in fridge. My fourth letter is in treat but not in absent. What is the word that this verse described?"
      ]
    },
    {
      "rt": 7001,
      "responses": "{\"Q0\":\"\"}",
      "trial_type": "survey-text",
      "trial_index": 19,
      "time_elapsed": 149640,
      "internal_node_id": "0.0-4.0-1.7-0.7",
      "responseType": "finish",
      "participantID": "3yoesb4jwhd7a11tgoumo4bgqyqanlgh",
      "problems_seen": [
        "Solve this anagram: AYKAWLJ",
        "The following verse spells out a word. I am a food for you and me. My first letter is in pat but not in tar. My second letter is in stream but not in smart. My third letter is in giraffe but not in fridge. My fourth letter is in treat but not in absent. What is the word that this verse described?"
      ]
    },
    {
      "rt": 3370.699999988079,
      "response": "0",
      "stimulus": "<center><p>How close are you towards solving this problem?</p></center>",
      "trial_type": "html-slider-response",
      "trial_index": 20,
      "time_elapsed": 153013,
      "internal_node_id": "0.0-4.0-1.7-1.7",
      "responseType": "finish",
      "participantID": "3yoesb4jwhd7a11tgoumo4bgqyqanlgh",
      "problems_seen": [
        "Solve this anagram: AYKAWLJ",
        "The following verse spells out a word. I am a food for you and me. My first letter is in pat but not in tar. My second letter is in stream but not in smart. My third letter is in giraffe but not in fridge. My fourth letter is in treat but not in absent. What is the word that this verse described?"
      ]
    },
    {
      "rt": 7001,
      "responses": "{\"Q0\":\"\"}",
      "trial_type": "survey-text",
      "trial_index": 21,
      "time_elapsed": 160016,
      "internal_node_id": "0.0-4.0-1.8-0.8",
      "responseType": "finish",
      "participantID": "3yoesb4jwhd7a11tgoumo4bgqyqanlgh",
      "problems_seen": [
        "Solve this anagram: AYKAWLJ",
        "The following verse spells out a word. I am a food for you and me. My first letter is in pat but not in tar. My second letter is in stream but not in smart. My third letter is in giraffe but not in fridge. My fourth letter is in treat but not in absent. What is the word that this verse described?"
      ]
    },
    {
      "rt": 19611.70000001788,
      "response": "0",
      "stimulus": "<center><p>How close are you towards solving this problem?</p></center>",
      "trial_type": "html-slider-response",
      "trial_index": 22,
      "time_elapsed": 179629,
      "internal_node_id": "0.0-4.0-1.8-1.8",
      "responseType": "finish",
      "participantID": "3yoesb4jwhd7a11tgoumo4bgqyqanlgh",
      "problems_seen": [
        "Solve this anagram: AYKAWLJ",
        "The following verse spells out a word. I am a food for you and me. My first letter is in pat but not in tar. My second letter is in stream but not in smart. My third letter is in giraffe but not in fridge. My fourth letter is in treat but not in absent. What is the word that this verse described?"
      ]
    },
    {
      "rt": 7000,
      "responses": "{\"Q0\":\"\"}",
      "trial_type": "survey-text",
      "trial_index": 23,
      "time_elapsed": 186631,
      "internal_node_id": "0.0-4.0-1.9-0.9",
      "responseType": "finish",
      "participantID": "3yoesb4jwhd7a11tgoumo4bgqyqanlgh",
      "problems_seen": [
        "Solve this anagram: AYKAWLJ",
        "The following verse spells out a word. I am a food for you and me. My first letter is in pat but not in tar. My second letter is in stream but not in smart. My third letter is in giraffe but not in fridge. My fourth letter is in treat but not in absent. What is the word that this verse described?"
      ]
    },
    {
      "rt": 7629.699999988079,
      "response": "0",
      "stimulus": "<center><p>How close are you towards solving this problem?</p></center>",
      "trial_type": "html-slider-response",
      "trial_index": 24,
      "time_elapsed": 194262,
      "internal_node_id": "0.0-4.0-1.9-1.9",
      "responseType": "finish",
      "participantID": "3yoesb4jwhd7a11tgoumo4bgqyqanlgh",
      "problems_seen": [
        "Solve this anagram: AYKAWLJ",
        "The following verse spells out a word. I am a food for you and me. My first letter is in pat but not in tar. My second letter is in stream but not in smart. My third letter is in giraffe but not in fridge. My fourth letter is in treat but not in absent. What is the word that this verse described?"
      ]
    },
    {
      "rt": 7000,
      "responses": "{\"Q0\":\"\"}",
      "trial_type": "survey-text",
      "trial_index": 25,
      "time_elapsed": 201265,
      "internal_node_id": "0.0-4.0-1.10-0.10",
      "responseType": "finish",
      "participantID": "3yoesb4jwhd7a11tgoumo4bgqyqanlgh",
      "problems_seen": [
        "Solve this anagram: AYKAWLJ",
        "The following verse spells out a word. I am a food for you and me. My first letter is in pat but not in tar. My second letter is in stream but not in smart. My third letter is in giraffe but not in fridge. My fourth letter is in treat but not in absent. What is the word that this verse described?"
      ]
    },
    {
      "rt": 17901.5,
      "response": "0",
      "stimulus": "<center><p>How close are you towards solving this problem?</p></center>",
      "trial_type": "html-slider-response",
      "trial_index": 26,
      "time_elapsed": 219168,
      "internal_node_id": "0.0-4.0-1.10-1.10",
      "responseType": "finish",
      "participantID": "3yoesb4jwhd7a11tgoumo4bgqyqanlgh",
      "problems_seen": [
        "Solve this anagram: AYKAWLJ",
        "The following verse spells out a word. I am a food for you and me. My first letter is in pat but not in tar. My second letter is in stream but not in smart. My third letter is in giraffe but not in fridge. My fourth letter is in treat but not in absent. What is the word that this verse described?"
      ]
    },
    {
      "rt": 5513,
      "responses": "{\"Q0\":\"SKIP\"}",
      "trial_type": "survey-text",
      "trial_index": 27,
      "time_elapsed": 224682,
      "internal_node_id": "0.0-4.0-1.11-0.11",
      "responseType": "finish",
      "participantID": "3yoesb4jwhd7a11tgoumo4bgqyqanlgh",
      "problems_seen": [
        "Solve this anagram: AYKAWLJ",
        "The following verse spells out a word. I am a food for you and me. My first letter is in pat but not in tar. My second letter is in stream but not in smart. My third letter is in giraffe but not in fridge. My fourth letter is in treat but not in absent. What is the word that this verse described?"
      ]
    },
    {
      "rt": 2536.199999988079,
      "response": "0",
      "stimulus": "<center><p>How close are you towards solving this problem?</p></center>",
      "trial_type": "html-slider-response",
      "trial_index": 28,
      "time_elapsed": 227220,
      "internal_node_id": "0.0-4.0-1.11-1.11",
      "responseType": "finish",
      "participantID": "3yoesb4jwhd7a11tgoumo4bgqyqanlgh",
      "problems_seen": [
        "Solve this anagram: AYKAWLJ",
        "The following verse spells out a word. I am a food for you and me. My first letter is in pat but not in tar. My second letter is in stream but not in smart. My third letter is in giraffe but not in fridge. My fourth letter is in treat but not in absent. What is the word that this verse described?"
      ]
    },
    {
      "rt": 5701,
      "responses": "{\"Q0\":\"\"}",
      "trial_type": "survey-text",
      "trial_index": 29,
      "time_elapsed": 232922,
      "internal_node_id": "0.0-4.0-2.0",
      "responseType": "finish",
      "participantID": "3yoesb4jwhd7a11tgoumo4bgqyqanlgh",
      "problems_seen": [
        "Solve this anagram: AYKAWLJ",
        "The following verse spells out a word. I am a food for you and me. My first letter is in pat but not in tar. My second letter is in stream but not in smart. My third letter is in giraffe but not in fridge. My fourth letter is in treat but not in absent. What is the word that this verse described?"
      ]
    },
    {
      "rt": 15311,
      "responses": "{\"Q0\":0,\"Q1\":6,\"Q2\":0}",
      "trial_type": "survey-likert",
      "trial_index": 30,
      "time_elapsed": 248236,
      "internal_node_id": "0.0-4.0-3.0-0.0",
      "responseType": "finish",
      "participantID": "3yoesb4jwhd7a11tgoumo4bgqyqanlgh",
      "problems_seen": [
        "Solve this anagram: AYKAWLJ",
        "The following verse spells out a word. I am a food for you and me. My first letter is in pat but not in tar. My second letter is in stream but not in smart. My third letter is in giraffe but not in fridge. My fourth letter is in treat but not in absent. What is the word that this verse described?"
      ]
    },
    {
      "rt": 1792,
      "stimulus": "<blockquote>\n  <p>Now a problem will be shown to you. <br><br> Press 'v' to view the problem.</p>\n</blockquote>",
      "key_press": 86,
      "trial_type": "html-keyboard-response",
      "trial_index": 31,
      "time_elapsed": 250030,
      "internal_node_id": "0.0-4.1-0.1",
      "responseType": "finish",
      "participantID": "3yoesb4jwhd7a11tgoumo4bgqyqanlgh",
      "problems_seen": [
        "Solve this anagram: AYKAWLJ",
        "The following verse spells out a word. I am a food for you and me. My first letter is in pat but not in tar. My second letter is in stream but not in smart. My third letter is in giraffe but not in fridge. My fourth letter is in treat but not in absent. What is the word that this verse described?"
      ]
    },
    {
      "rt": 7000,
      "responses": "{\"Q0\":\"\"}",
      "trial_type": "survey-text",
      "trial_index": 32,
      "time_elapsed": 257042,
      "internal_node_id": "0.0-4.1-1.12-0.12",
      "responseType": "finish",
      "participantID": "3yoesb4jwhd7a11tgoumo4bgqyqanlgh",
      "problems_seen": [
        "Solve this anagram: AYKAWLJ",
        "The following verse spells out a word. I am a food for you and me. My first letter is in pat but not in tar. My second letter is in stream but not in smart. My third letter is in giraffe but not in fridge. My fourth letter is in treat but not in absent. What is the word that this verse described?"
      ]
    },
    {
      "rt": 3552.0999999940395,
      "response": "0",
      "stimulus": "<center><p>How close are you towards solving this problem?</p></center>",
      "trial_type": "html-slider-response",
      "trial_index": 33,
      "time_elapsed": 260596,
      "internal_node_id": "0.0-4.1-1.12-1.12",
      "responseType": "finish",
      "participantID": "3yoesb4jwhd7a11tgoumo4bgqyqanlgh",
      "problems_seen": [
        "Solve this anagram: AYKAWLJ",
        "The following verse spells out a word. I am a food for you and me. My first letter is in pat but not in tar. My second letter is in stream but not in smart. My third letter is in giraffe but not in fridge. My fourth letter is in treat but not in absent. What is the word that this verse described?"
      ]
    },
    {
      "rt": 7001,
      "responses": "{\"Q0\":\"\"}",
      "trial_type": "survey-text",
      "trial_index": 34,
      "time_elapsed": 267607,
      "internal_node_id": "0.0-4.1-1.13-0.13",
      "responseType": "finish",
      "participantID": "3yoesb4jwhd7a11tgoumo4bgqyqanlgh",
      "problems_seen": [
        "Solve this anagram: AYKAWLJ",
        "The following verse spells out a word. I am a food for you and me. My first letter is in pat but not in tar. My second letter is in stream but not in smart. My third letter is in giraffe but not in fridge. My fourth letter is in treat but not in absent. What is the word that this verse described?"
      ]
    },
    {
      "rt": 2887.5999999940395,
      "response": "3",
      "stimulus": "<center><p>How close are you towards solving this problem?</p></center>",
      "trial_type": "html-slider-response",
      "trial_index": 35,
      "time_elapsed": 270496,
      "internal_node_id": "0.0-4.1-1.13-1.13",
      "responseType": "finish",
      "participantID": "3yoesb4jwhd7a11tgoumo4bgqyqanlgh",
      "problems_seen": [
        "Solve this anagram: AYKAWLJ",
        "The following verse spells out a word. I am a food for you and me. My first letter is in pat but not in tar. My second letter is in stream but not in smart. My third letter is in giraffe but not in fridge. My fourth letter is in treat but not in absent. What is the word that this verse described?"
      ]
    },
    {
      "rt": 7000,
      "responses": "{\"Q0\":\"\"}",
      "trial_type": "survey-text",
      "trial_index": 36,
      "time_elapsed": 277499,
      "internal_node_id": "0.0-4.1-1.14-0.14",
      "responseType": "finish",
      "participantID": "3yoesb4jwhd7a11tgoumo4bgqyqanlgh",
      "problems_seen": [
        "Solve this anagram: AYKAWLJ",
        "The following verse spells out a word. I am a food for you and me. My first letter is in pat but not in tar. My second letter is in stream but not in smart. My third letter is in giraffe but not in fridge. My fourth letter is in treat but not in absent. What is the word that this verse described?"
      ]
    },
    {
      "rt": 3615.4000000059605,
      "response": "0",
      "stimulus": "<center><p>How close are you towards solving this problem?</p></center>",
      "trial_type": "html-slider-response",
      "trial_index": 37,
      "time_elapsed": 281116,
      "internal_node_id": "0.0-4.1-1.14-1.14",
      "responseType": "finish",
      "participantID": "3yoesb4jwhd7a11tgoumo4bgqyqanlgh",
      "problems_seen": [
        "Solve this anagram: AYKAWLJ",
        "The following verse spells out a word. I am a food for you and me. My first letter is in pat but not in tar. My second letter is in stream but not in smart. My third letter is in giraffe but not in fridge. My fourth letter is in treat but not in absent. What is the word that this verse described?"
      ]
    },
    {
      "rt": 7002,
      "responses": "{\"Q0\":\"\"}",
      "trial_type": "survey-text",
      "trial_index": 38,
      "time_elapsed": 288119,
      "internal_node_id": "0.0-4.1-1.15-0.15",
      "responseType": "finish",
      "participantID": "3yoesb4jwhd7a11tgoumo4bgqyqanlgh",
      "problems_seen": [
        "Solve this anagram: AYKAWLJ",
        "The following verse spells out a word. I am a food for you and me. My first letter is in pat but not in tar. My second letter is in stream but not in smart. My third letter is in giraffe but not in fridge. My fourth letter is in treat but not in absent. What is the word that this verse described?"
      ]
    },
    {
      "rt": 2081.199999988079,
      "response": "2",
      "stimulus": "<center><p>How close are you towards solving this problem?</p></center>",
      "trial_type": "html-slider-response",
      "trial_index": 39,
      "time_elapsed": 290202,
      "internal_node_id": "0.0-4.1-1.15-1.15",
      "responseType": "finish",
      "participantID": "3yoesb4jwhd7a11tgoumo4bgqyqanlgh",
      "problems_seen": [
        "Solve this anagram: AYKAWLJ",
        "The following verse spells out a word. I am a food for you and me. My first letter is in pat but not in tar. My second letter is in stream but not in smart. My third letter is in giraffe but not in fridge. My fourth letter is in treat but not in absent. What is the word that this verse described?"
      ]
    },
    {
      "rt": 7001,
      "responses": "{\"Q0\":\"\"}",
      "trial_type": "survey-text",
      "trial_index": 40,
      "time_elapsed": 297205,
      "internal_node_id": "0.0-4.1-1.16-0.16",
      "responseType": "finish",
      "participantID": "3yoesb4jwhd7a11tgoumo4bgqyqanlgh",
      "problems_seen": [
        "Solve this anagram: AYKAWLJ",
        "The following verse spells out a word. I am a food for you and me. My first letter is in pat but not in tar. My second letter is in stream but not in smart. My third letter is in giraffe but not in fridge. My fourth letter is in treat but not in absent. What is the word that this verse described?"
      ]
    },
    {
      "rt": 2071.5,
      "response": "0",
      "stimulus": "<center><p>How close are you towards solving this problem?</p></center>",
      "trial_type": "html-slider-response",
      "trial_index": 41,
      "time_elapsed": 299278,
      "internal_node_id": "0.0-4.1-1.16-1.16",
      "responseType": "finish",
      "participantID": "3yoesb4jwhd7a11tgoumo4bgqyqanlgh",
      "problems_seen": [
        "Solve this anagram: AYKAWLJ",
        "The following verse spells out a word. I am a food for you and me. My first letter is in pat but not in tar. My second letter is in stream but not in smart. My third letter is in giraffe but not in fridge. My fourth letter is in treat but not in absent. What is the word that this verse described?"
      ]
    },
    {
      "rt": 7000,
      "responses": "{\"Q0\":\"\"}",
      "trial_type": "survey-text",
      "trial_index": 42,
      "time_elapsed": 306280,
      "internal_node_id": "0.0-4.1-1.17-0.17",
      "responseType": "finish",
      "participantID": "3yoesb4jwhd7a11tgoumo4bgqyqanlgh",
      "problems_seen": [
        "Solve this anagram: AYKAWLJ",
        "The following verse spells out a word. I am a food for you and me. My first letter is in pat but not in tar. My second letter is in stream but not in smart. My third letter is in giraffe but not in fridge. My fourth letter is in treat but not in absent. What is the word that this verse described?"
      ]
    },
    {
      "rt": 1751.699999988079,
      "response": "2",
      "stimulus": "<center><p>How close are you towards solving this problem?</p></center>",
      "trial_type": "html-slider-response",
      "trial_index": 43,
      "time_elapsed": 308034,
      "internal_node_id": "0.0-4.1-1.17-1.17",
      "responseType": "finish",
      "participantID": "3yoesb4jwhd7a11tgoumo4bgqyqanlgh",
      "problems_seen": [
        "Solve this anagram: AYKAWLJ",
        "The following verse spells out a word. I am a food for you and me. My first letter is in pat but not in tar. My second letter is in stream but not in smart. My third letter is in giraffe but not in fridge. My fourth letter is in treat but not in absent. What is the word that this verse described?"
      ]
    },
    {
      "rt": 7000,
      "responses": "{\"Q0\":\"\"}",
      "trial_type": "survey-text",
      "trial_index": 44,
      "time_elapsed": 315036,
      "internal_node_id": "0.0-4.1-1.18-0.18",
      "responseType": "finish",
      "participantID": "3yoesb4jwhd7a11tgoumo4bgqyqanlgh",
      "problems_seen": [
        "Solve this anagram: AYKAWLJ",
        "The following verse spells out a word. I am a food for you and me. My first letter is in pat but not in tar. My second letter is in stream but not in smart. My third letter is in giraffe but not in fridge. My fourth letter is in treat but not in absent. What is the word that this verse described?"
      ]
    },
    {
      "rt": 2818,
      "response": "0",
      "stimulus": "<center><p>How close are you towards solving this problem?</p></center>",
      "trial_type": "html-slider-response",
      "trial_index": 45,
      "time_elapsed": 317856,
      "internal_node_id": "0.0-4.1-1.18-1.18",
      "responseType": "finish",
      "participantID": "3yoesb4jwhd7a11tgoumo4bgqyqanlgh",
      "problems_seen": [
        "Solve this anagram: AYKAWLJ",
        "The following verse spells out a word. I am a food for you and me. My first letter is in pat but not in tar. My second letter is in stream but not in smart. My third letter is in giraffe but not in fridge. My fourth letter is in treat but not in absent. What is the word that this verse described?"
      ]
    },
    {
      "rt": 7000,
      "responses": "{\"Q0\":\"DONE\"}",
      "trial_type": "survey-text",
      "trial_index": 46,
      "time_elapsed": 324859,
      "internal_node_id": "0.0-4.1-1.19-0.19",
      "responseType": "finish",
      "participantID": "3yoesb4jwhd7a11tgoumo4bgqyqanlgh",
      "problems_seen": [
        "Solve this anagram: AYKAWLJ",
        "The following verse spells out a word. I am a food for you and me. My first letter is in pat but not in tar. My second letter is in stream but not in smart. My third letter is in giraffe but not in fridge. My fourth letter is in treat but not in absent. What is the word that this verse described?"
      ]
    },
    {
      "rt": 2891.699999988079,
      "response": "99",
      "stimulus": "<center><p>How close are you towards solving this problem?</p></center>",
      "trial_type": "html-slider-response",
      "trial_index": 47,
      "time_elapsed": 327753,
      "internal_node_id": "0.0-4.1-1.19-1.19",
      "responseType": "finish",
      "participantID": "3yoesb4jwhd7a11tgoumo4bgqyqanlgh",
      "problems_seen": [
        "Solve this anagram: AYKAWLJ",
        "The following verse spells out a word. I am a food for you and me. My first letter is in pat but not in tar. My second letter is in stream but not in smart. My third letter is in giraffe but not in fridge. My fourth letter is in treat but not in absent. What is the word that this verse described?"
      ]
    },
    {
      "rt": 5779,
      "responses": "{\"Q0\":\"pear\"}",
      "trial_type": "survey-text",
      "trial_index": 48,
      "time_elapsed": 333533,
      "internal_node_id": "0.0-4.1-2.1",
      "responseType": "finish",
      "participantID": "3yoesb4jwhd7a11tgoumo4bgqyqanlgh",
      "problems_seen": [
        "Solve this anagram: AYKAWLJ",
        "The following verse spells out a word. I am a food for you and me. My first letter is in pat but not in tar. My second letter is in stream but not in smart. My third letter is in giraffe but not in fridge. My fourth letter is in treat but not in absent. What is the word that this verse described?"
      ]
    },
    {
      "rt": 12098,
      "responses": "{\"Q0\":5,\"Q1\":2,\"Q2\":1}",
      "trial_type": "survey-likert",
      "trial_index": 49,
      "time_elapsed": 345634,
      "internal_node_id": "0.0-4.1-3.1-0.1",
      "responseType": "finish",
      "participantID": "3yoesb4jwhd7a11tgoumo4bgqyqanlgh",
      "problems_seen": [
        "Solve this anagram: AYKAWLJ",
        "The following verse spells out a word. I am a food for you and me. My first letter is in pat but not in tar. My second letter is in stream but not in smart. My third letter is in giraffe but not in fridge. My fourth letter is in treat but not in absent. What is the word that this verse described?"
      ]
    }
  ],
  "__v": 0
},{
  "_id": {
    "$oid": "620ad8ca8141480004e893c9"
  },
  "data": {
    "responseType": "start",
    "participantID": "9fswdnh7raalrd1eq3ewsgygjjmddp4x",
    "problems_seen": [
      "Solve this anagram: AALRYS",
      "Next week I am going to have lunch with my friend, visit the new art gallery, go to the Social Security office, and have my teeth checked at the dentist. My friend cannot meet me on Wednesday; the Social Security office is closed weekends; the dentist has office hours only on Tuesday, Friday, and Saturday; the art gallery is closed Tuesday, Thursday, and weekends. On what single day can I do everything I have planned?"
    ]
  },
  "__v": 0
},{
  "_id": {
    "$oid": "620ad9628141480004e893ca"
  },
  "data": {
    "responseType": "start",
    "participantID": "nrhcbomg6gfdqb4yacf0dq4oal2vm1g2",
    "problems_seen": [
      "A group of soldiers were standing facing west. Their sergeant shouted at them: Right turn! U-turn! Left turn! U-turn! Right turn! U-turn! Left turn! Right turn! In which direction are they now facing?",
      "Solve this anagram: AALRYS"
    ]
  },
  "__v": 0
},{
  "_id": {
    "$oid": "620ad9b98141480004e893cb"
  },
  "data": [
    {
      "rt": 7883,
      "responses": "{\"Q0\":\" I consent to participate\"}",
      "trial_type": "survey-multi-choice",
      "trial_index": 0,
      "time_elapsed": 7891,
      "internal_node_id": "0.0-0.0",
      "responseType": "finish",
      "participantID": "9fswdnh7raalrd1eq3ewsgygjjmddp4x",
      "problems_seen": [
        "Solve this anagram: AALRYS",
        "Next week I am going to have lunch with my friend, visit the new art gallery, go to the Social Security office, and have my teeth checked at the dentist. My friend cannot meet me on Wednesday; the Social Security office is closed weekends; the dentist has office hours only on Tuesday, Friday, and Saturday; the art gallery is closed Tuesday, Thursday, and weekends. On what single day can I do everything I have planned?"
      ]
    },
    {
      "trial_type": "call-function",
      "trial_index": 1,
      "time_elapsed": 7895,
      "internal_node_id": "0.0-1.0",
      "responseType": "finish",
      "participantID": "9fswdnh7raalrd1eq3ewsgygjjmddp4x",
      "problems_seen": [
        "Solve this anagram: AALRYS",
        "Next week I am going to have lunch with my friend, visit the new art gallery, go to the Social Security office, and have my teeth checked at the dentist. My friend cannot meet me on Wednesday; the Social Security office is closed weekends; the dentist has office hours only on Tuesday, Friday, and Saturday; the art gallery is closed Tuesday, Thursday, and weekends. On what single day can I do everything I have planned?"
      ]
    },
    {
      "view_history": "[{\"page_index\":0,\"viewing_time\":7813},{\"page_index\":1,\"viewing_time\":24243},{\"page_index\":2,\"viewing_time\":7230}]",
      "rt": 39287,
      "trial_type": "instructions",
      "trial_index": 2,
      "time_elapsed": 47183,
      "internal_node_id": "0.0-2.0",
      "responseType": "finish",
      "participantID": "9fswdnh7raalrd1eq3ewsgygjjmddp4x",
      "problems_seen": [
        "Solve this anagram: AALRYS",
        "Next week I am going to have lunch with my friend, visit the new art gallery, go to the Social Security office, and have my teeth checked at the dentist. My friend cannot meet me on Wednesday; the Social Security office is closed weekends; the dentist has office hours only on Tuesday, Friday, and Saturday; the art gallery is closed Tuesday, Thursday, and weekends. On what single day can I do everything I have planned?"
      ]
    },
    {
      "rt": 17707,
      "responses": "{\"Q0\":\"DONE when the problem is solved and SKIP when I want to move on the next problem\"}",
      "trial_type": "survey-multi-choice",
      "trial_index": 3,
      "time_elapsed": 64893,
      "internal_node_id": "0.0-3.0",
      "responseType": "finish",
      "participantID": "9fswdnh7raalrd1eq3ewsgygjjmddp4x",
      "problems_seen": [
        "Solve this anagram: AALRYS",
        "Next week I am going to have lunch with my friend, visit the new art gallery, go to the Social Security office, and have my teeth checked at the dentist. My friend cannot meet me on Wednesday; the Social Security office is closed weekends; the dentist has office hours only on Tuesday, Friday, and Saturday; the art gallery is closed Tuesday, Thursday, and weekends. On what single day can I do everything I have planned?"
      ]
    },
    {
      "rt": 5359,
      "stimulus": "<blockquote>\n  <p>Now a problem will be shown to you. <br><br> Press 'v' to view the problem.</p>\n</blockquote>",
      "key_press": 86,
      "trial_type": "html-keyboard-response",
      "trial_index": 4,
      "time_elapsed": 70252,
      "internal_node_id": "0.0-4.0-0.0",
      "responseType": "finish",
      "participantID": "9fswdnh7raalrd1eq3ewsgygjjmddp4x",
      "problems_seen": [
        "Solve this anagram: AALRYS",
        "Next week I am going to have lunch with my friend, visit the new art gallery, go to the Social Security office, and have my teeth checked at the dentist. My friend cannot meet me on Wednesday; the Social Security office is closed weekends; the dentist has office hours only on Tuesday, Friday, and Saturday; the art gallery is closed Tuesday, Thursday, and weekends. On what single day can I do everything I have planned?"
      ]
    },
    {
      "rt": 7009,
      "responses": "{\"Q0\":\"\"}",
      "trial_type": "survey-text",
      "trial_index": 5,
      "time_elapsed": 77274,
      "internal_node_id": "0.0-4.0-1.0-0.0",
      "responseType": "finish",
      "participantID": "9fswdnh7raalrd1eq3ewsgygjjmddp4x",
      "problems_seen": [
        "Solve this anagram: AALRYS",
        "Next week I am going to have lunch with my friend, visit the new art gallery, go to the Social Security office, and have my teeth checked at the dentist. My friend cannot meet me on Wednesday; the Social Security office is closed weekends; the dentist has office hours only on Tuesday, Friday, and Saturday; the art gallery is closed Tuesday, Thursday, and weekends. On what single day can I do everything I have planned?"
      ]
    },
    {
      "rt": 8700.400000000373,
      "response": "0",
      "stimulus": "<center><p>How close are you towards solving this problem?</p></center>",
      "trial_type": "html-slider-response",
      "trial_index": 6,
      "time_elapsed": 85976,
      "internal_node_id": "0.0-4.0-1.0-1.0",
      "responseType": "finish",
      "participantID": "9fswdnh7raalrd1eq3ewsgygjjmddp4x",
      "problems_seen": [
        "Solve this anagram: AALRYS",
        "Next week I am going to have lunch with my friend, visit the new art gallery, go to the Social Security office, and have my teeth checked at the dentist. My friend cannot meet me on Wednesday; the Social Security office is closed weekends; the dentist has office hours only on Tuesday, Friday, and Saturday; the art gallery is closed Tuesday, Thursday, and weekends. On what single day can I do everything I have planned?"
      ]
    },
    {
      "rt": 7001,
      "responses": "{\"Q0\":\"\"}",
      "trial_type": "survey-text",
      "trial_index": 7,
      "time_elapsed": 92979,
      "internal_node_id": "0.0-4.0-1.1-0.1",
      "responseType": "finish",
      "participantID": "9fswdnh7raalrd1eq3ewsgygjjmddp4x",
      "problems_seen": [
        "Solve this anagram: AALRYS",
        "Next week I am going to have lunch with my friend, visit the new art gallery, go to the Social Security office, and have my teeth checked at the dentist. My friend cannot meet me on Wednesday; the Social Security office is closed weekends; the dentist has office hours only on Tuesday, Friday, and Saturday; the art gallery is closed Tuesday, Thursday, and weekends. On what single day can I do everything I have planned?"
      ]
    },
    {
      "rt": 4422.9000000003725,
      "response": "2",
      "stimulus": "<center><p>How close are you towards solving this problem?</p></center>",
      "trial_type": "html-slider-response",
      "trial_index": 8,
      "time_elapsed": 97403,
      "internal_node_id": "0.0-4.0-1.1-1.1",
      "responseType": "finish",
      "participantID": "9fswdnh7raalrd1eq3ewsgygjjmddp4x",
      "problems_seen": [
        "Solve this anagram: AALRYS",
        "Next week I am going to have lunch with my friend, visit the new art gallery, go to the Social Security office, and have my teeth checked at the dentist. My friend cannot meet me on Wednesday; the Social Security office is closed weekends; the dentist has office hours only on Tuesday, Friday, and Saturday; the art gallery is closed Tuesday, Thursday, and weekends. On what single day can I do everything I have planned?"
      ]
    },
    {
      "rt": 7000,
      "responses": "{\"Q0\":\"\"}",
      "trial_type": "survey-text",
      "trial_index": 9,
      "time_elapsed": 104407,
      "internal_node_id": "0.0-4.0-1.2-0.2",
      "responseType": "finish",
      "participantID": "9fswdnh7raalrd1eq3ewsgygjjmddp4x",
      "problems_seen": [
        "Solve this anagram: AALRYS",
        "Next week I am going to have lunch with my friend, visit the new art gallery, go to the Social Security office, and have my teeth checked at the dentist. My friend cannot meet me on Wednesday; the Social Security office is closed weekends; the dentist has office hours only on Tuesday, Friday, and Saturday; the art gallery is closed Tuesday, Thursday, and weekends. On what single day can I do everything I have planned?"
      ]
    },
    {
      "rt": 3990.199999999255,
      "response": "12",
      "stimulus": "<center><p>How close are you towards solving this problem?</p></center>",
      "trial_type": "html-slider-response",
      "trial_index": 10,
      "time_elapsed": 108400,
      "internal_node_id": "0.0-4.0-1.2-1.2",
      "responseType": "finish",
      "participantID": "9fswdnh7raalrd1eq3ewsgygjjmddp4x",
      "problems_seen": [
        "Solve this anagram: AALRYS",
        "Next week I am going to have lunch with my friend, visit the new art gallery, go to the Social Security office, and have my teeth checked at the dentist. My friend cannot meet me on Wednesday; the Social Security office is closed weekends; the dentist has office hours only on Tuesday, Friday, and Saturday; the art gallery is closed Tuesday, Thursday, and weekends. On what single day can I do everything I have planned?"
      ]
    },
    {
      "rt": 7475,
      "responses": "{\"Q0\":\"\"}",
      "trial_type": "survey-text",
      "trial_index": 11,
      "time_elapsed": 115877,
      "internal_node_id": "0.0-4.0-1.3-0.3",
      "responseType": "finish",
      "participantID": "9fswdnh7raalrd1eq3ewsgygjjmddp4x",
      "problems_seen": [
        "Solve this anagram: AALRYS",
        "Next week I am going to have lunch with my friend, visit the new art gallery, go to the Social Security office, and have my teeth checked at the dentist. My friend cannot meet me on Wednesday; the Social Security office is closed weekends; the dentist has office hours only on Tuesday, Friday, and Saturday; the art gallery is closed Tuesday, Thursday, and weekends. On what single day can I do everything I have planned?"
      ]
    },
    {
      "rt": 10348.89999999851,
      "response": "22",
      "stimulus": "<center><p>How close are you towards solving this problem?</p></center>",
      "trial_type": "html-slider-response",
      "trial_index": 12,
      "time_elapsed": 126234,
      "internal_node_id": "0.0-4.0-1.3-1.3",
      "responseType": "finish",
      "participantID": "9fswdnh7raalrd1eq3ewsgygjjmddp4x",
      "problems_seen": [
        "Solve this anagram: AALRYS",
        "Next week I am going to have lunch with my friend, visit the new art gallery, go to the Social Security office, and have my teeth checked at the dentist. My friend cannot meet me on Wednesday; the Social Security office is closed weekends; the dentist has office hours only on Tuesday, Friday, and Saturday; the art gallery is closed Tuesday, Thursday, and weekends. On what single day can I do everything I have planned?"
      ]
    },
    {
      "rt": 8306,
      "responses": "{\"Q0\":\"\"}",
      "trial_type": "survey-text",
      "trial_index": 13,
      "time_elapsed": 134542,
      "internal_node_id": "0.0-4.0-1.4-0.4",
      "responseType": "finish",
      "participantID": "9fswdnh7raalrd1eq3ewsgygjjmddp4x",
      "problems_seen": [
        "Solve this anagram: AALRYS",
        "Next week I am going to have lunch with my friend, visit the new art gallery, go to the Social Security office, and have my teeth checked at the dentist. My friend cannot meet me on Wednesday; the Social Security office is closed weekends; the dentist has office hours only on Tuesday, Friday, and Saturday; the art gallery is closed Tuesday, Thursday, and weekends. On what single day can I do everything I have planned?"
      ]
    },
    {
      "rt": 2498.9000000003725,
      "response": "26",
      "stimulus": "<center><p>How close are you towards solving this problem?</p></center>",
      "trial_type": "html-slider-response",
      "trial_index": 14,
      "time_elapsed": 137042,
      "internal_node_id": "0.0-4.0-1.4-1.4",
      "responseType": "finish",
      "participantID": "9fswdnh7raalrd1eq3ewsgygjjmddp4x",
      "problems_seen": [
        "Solve this anagram: AALRYS",
        "Next week I am going to have lunch with my friend, visit the new art gallery, go to the Social Security office, and have my teeth checked at the dentist. My friend cannot meet me on Wednesday; the Social Security office is closed weekends; the dentist has office hours only on Tuesday, Friday, and Saturday; the art gallery is closed Tuesday, Thursday, and weekends. On what single day can I do everything I have planned?"
      ]
    },
    {
      "rt": 6521,
      "responses": "{\"Q0\":\"skip\"}",
      "trial_type": "survey-text",
      "trial_index": 15,
      "time_elapsed": 143565,
      "internal_node_id": "0.0-4.0-1.5-0.5",
      "responseType": "finish",
      "participantID": "9fswdnh7raalrd1eq3ewsgygjjmddp4x",
      "problems_seen": [
        "Solve this anagram: AALRYS",
        "Next week I am going to have lunch with my friend, visit the new art gallery, go to the Social Security office, and have my teeth checked at the dentist. My friend cannot meet me on Wednesday; the Social Security office is closed weekends; the dentist has office hours only on Tuesday, Friday, and Saturday; the art gallery is closed Tuesday, Thursday, and weekends. On what single day can I do everything I have planned?"
      ]
    },
    {
      "rt": 4137.699999999255,
      "response": "32",
      "stimulus": "<center><p>How close are you towards solving this problem?</p></center>",
      "trial_type": "html-slider-response",
      "trial_index": 16,
      "time_elapsed": 147704,
      "internal_node_id": "0.0-4.0-1.5-1.5",
      "responseType": "finish",
      "participantID": "9fswdnh7raalrd1eq3ewsgygjjmddp4x",
      "problems_seen": [
        "Solve this anagram: AALRYS",
        "Next week I am going to have lunch with my friend, visit the new art gallery, go to the Social Security office, and have my teeth checked at the dentist. My friend cannot meet me on Wednesday; the Social Security office is closed weekends; the dentist has office hours only on Tuesday, Friday, and Saturday; the art gallery is closed Tuesday, Thursday, and weekends. On what single day can I do everything I have planned?"
      ]
    },
    {
      "rt": 10367,
      "responses": "{\"Q0\":\"\"}",
      "trial_type": "survey-text",
      "trial_index": 17,
      "time_elapsed": 158073,
      "internal_node_id": "0.0-4.0-2.0",
      "responseType": "finish",
      "participantID": "9fswdnh7raalrd1eq3ewsgygjjmddp4x",
      "problems_seen": [
        "Solve this anagram: AALRYS",
        "Next week I am going to have lunch with my friend, visit the new art gallery, go to the Social Security office, and have my teeth checked at the dentist. My friend cannot meet me on Wednesday; the Social Security office is closed weekends; the dentist has office hours only on Tuesday, Friday, and Saturday; the art gallery is closed Tuesday, Thursday, and weekends. On what single day can I do everything I have planned?"
      ]
    },
    {
      "rt": 21839,
      "responses": "{\"Q0\":0,\"Q1\":4,\"Q2\":0}",
      "trial_type": "survey-likert",
      "trial_index": 18,
      "time_elapsed": 179913,
      "internal_node_id": "0.0-4.0-3.0-0.0",
      "responseType": "finish",
      "participantID": "9fswdnh7raalrd1eq3ewsgygjjmddp4x",
      "problems_seen": [
        "Solve this anagram: AALRYS",
        "Next week I am going to have lunch with my friend, visit the new art gallery, go to the Social Security office, and have my teeth checked at the dentist. My friend cannot meet me on Wednesday; the Social Security office is closed weekends; the dentist has office hours only on Tuesday, Friday, and Saturday; the art gallery is closed Tuesday, Thursday, and weekends. On what single day can I do everything I have planned?"
      ]
    },
    {
      "rt": 2885,
      "stimulus": "<blockquote>\n  <p>Now a problem will be shown to you. <br><br> Press 'v' to view the problem.</p>\n</blockquote>",
      "key_press": 86,
      "trial_type": "html-keyboard-response",
      "trial_index": 19,
      "time_elapsed": 182800,
      "internal_node_id": "0.0-4.1-0.1",
      "responseType": "finish",
      "participantID": "9fswdnh7raalrd1eq3ewsgygjjmddp4x",
      "problems_seen": [
        "Solve this anagram: AALRYS",
        "Next week I am going to have lunch with my friend, visit the new art gallery, go to the Social Security office, and have my teeth checked at the dentist. My friend cannot meet me on Wednesday; the Social Security office is closed weekends; the dentist has office hours only on Tuesday, Friday, and Saturday; the art gallery is closed Tuesday, Thursday, and weekends. On what single day can I do everything I have planned?"
      ]
    },
    {
      "rt": 7013,
      "responses": "{\"Q0\":\"\"}",
      "trial_type": "survey-text",
      "trial_index": 20,
      "time_elapsed": 189814,
      "internal_node_id": "0.0-4.1-1.6-0.6",
      "responseType": "finish",
      "participantID": "9fswdnh7raalrd1eq3ewsgygjjmddp4x",
      "problems_seen": [
        "Solve this anagram: AALRYS",
        "Next week I am going to have lunch with my friend, visit the new art gallery, go to the Social Security office, and have my teeth checked at the dentist. My friend cannot meet me on Wednesday; the Social Security office is closed weekends; the dentist has office hours only on Tuesday, Friday, and Saturday; the art gallery is closed Tuesday, Thursday, and weekends. On what single day can I do everything I have planned?"
      ]
    },
    {
      "rt": 3697.300000000745,
      "response": "1",
      "stimulus": "<center><p>How close are you towards solving this problem?</p></center>",
      "trial_type": "html-slider-response",
      "trial_index": 21,
      "time_elapsed": 193513,
      "internal_node_id": "0.0-4.1-1.6-1.6",
      "responseType": "finish",
      "participantID": "9fswdnh7raalrd1eq3ewsgygjjmddp4x",
      "problems_seen": [
        "Solve this anagram: AALRYS",
        "Next week I am going to have lunch with my friend, visit the new art gallery, go to the Social Security office, and have my teeth checked at the dentist. My friend cannot meet me on Wednesday; the Social Security office is closed weekends; the dentist has office hours only on Tuesday, Friday, and Saturday; the art gallery is closed Tuesday, Thursday, and weekends. On what single day can I do everything I have planned?"
      ]
    },
    {
      "rt": 7016,
      "responses": "{\"Q0\":\"\"}",
      "trial_type": "survey-text",
      "trial_index": 22,
      "time_elapsed": 200540,
      "internal_node_id": "0.0-4.1-1.7-0.7",
      "responseType": "finish",
      "participantID": "9fswdnh7raalrd1eq3ewsgygjjmddp4x",
      "problems_seen": [
        "Solve this anagram: AALRYS",
        "Next week I am going to have lunch with my friend, visit the new art gallery, go to the Social Security office, and have my teeth checked at the dentist. My friend cannot meet me on Wednesday; the Social Security office is closed weekends; the dentist has office hours only on Tuesday, Friday, and Saturday; the art gallery is closed Tuesday, Thursday, and weekends. On what single day can I do everything I have planned?"
      ]
    },
    {
      "rt": 3049.10000000149,
      "response": "0",
      "stimulus": "<center><p>How close are you towards solving this problem?</p></center>",
      "trial_type": "html-slider-response",
      "trial_index": 23,
      "time_elapsed": 203590,
      "internal_node_id": "0.0-4.1-1.7-1.7",
      "responseType": "finish",
      "participantID": "9fswdnh7raalrd1eq3ewsgygjjmddp4x",
      "problems_seen": [
        "Solve this anagram: AALRYS",
        "Next week I am going to have lunch with my friend, visit the new art gallery, go to the Social Security office, and have my teeth checked at the dentist. My friend cannot meet me on Wednesday; the Social Security office is closed weekends; the dentist has office hours only on Tuesday, Friday, and Saturday; the art gallery is closed Tuesday, Thursday, and weekends. On what single day can I do everything I have planned?"
      ]
    },
    {
      "rt": 7013,
      "responses": "{\"Q0\":\"\"}",
      "trial_type": "survey-text",
      "trial_index": 24,
      "time_elapsed": 210606,
      "internal_node_id": "0.0-4.1-1.8-0.8",
      "responseType": "finish",
      "participantID": "9fswdnh7raalrd1eq3ewsgygjjmddp4x",
      "problems_seen": [
        "Solve this anagram: AALRYS",
        "Next week I am going to have lunch with my friend, visit the new art gallery, go to the Social Security office, and have my teeth checked at the dentist. My friend cannot meet me on Wednesday; the Social Security office is closed weekends; the dentist has office hours only on Tuesday, Friday, and Saturday; the art gallery is closed Tuesday, Thursday, and weekends. On what single day can I do everything I have planned?"
      ]
    },
    {
      "rt": 2755.2000000011176,
      "response": "10",
      "stimulus": "<center><p>How close are you towards solving this problem?</p></center>",
      "trial_type": "html-slider-response",
      "trial_index": 25,
      "time_elapsed": 213362,
      "internal_node_id": "0.0-4.1-1.8-1.8",
      "responseType": "finish",
      "participantID": "9fswdnh7raalrd1eq3ewsgygjjmddp4x",
      "problems_seen": [
        "Solve this anagram: AALRYS",
        "Next week I am going to have lunch with my friend, visit the new art gallery, go to the Social Security office, and have my teeth checked at the dentist. My friend cannot meet me on Wednesday; the Social Security office is closed weekends; the dentist has office hours only on Tuesday, Friday, and Saturday; the art gallery is closed Tuesday, Thursday, and weekends. On what single day can I do everything I have planned?"
      ]
    },
    {
      "rt": 7002,
      "responses": "{\"Q0\":\"\"}",
      "trial_type": "survey-text",
      "trial_index": 26,
      "time_elapsed": 220365,
      "internal_node_id": "0.0-4.1-1.9-0.9",
      "responseType": "finish",
      "participantID": "9fswdnh7raalrd1eq3ewsgygjjmddp4x",
      "problems_seen": [
        "Solve this anagram: AALRYS",
        "Next week I am going to have lunch with my friend, visit the new art gallery, go to the Social Security office, and have my teeth checked at the dentist. My friend cannot meet me on Wednesday; the Social Security office is closed weekends; the dentist has office hours only on Tuesday, Friday, and Saturday; the art gallery is closed Tuesday, Thursday, and weekends. On what single day can I do everything I have planned?"
      ]
    },
    {
      "rt": 3734.2999999988824,
      "response": "4",
      "stimulus": "<center><p>How close are you towards solving this problem?</p></center>",
      "trial_type": "html-slider-response",
      "trial_index": 27,
      "time_elapsed": 224100,
      "internal_node_id": "0.0-4.1-1.9-1.9",
      "responseType": "finish",
      "participantID": "9fswdnh7raalrd1eq3ewsgygjjmddp4x",
      "problems_seen": [
        "Solve this anagram: AALRYS",
        "Next week I am going to have lunch with my friend, visit the new art gallery, go to the Social Security office, and have my teeth checked at the dentist. My friend cannot meet me on Wednesday; the Social Security office is closed weekends; the dentist has office hours only on Tuesday, Friday, and Saturday; the art gallery is closed Tuesday, Thursday, and weekends. On what single day can I do everything I have planned?"
      ]
    },
    {
      "rt": 4147,
      "responses": "{\"Q0\":\"skip\"}",
      "trial_type": "survey-text",
      "trial_index": 28,
      "time_elapsed": 228249,
      "internal_node_id": "0.0-4.1-1.10-0.10",
      "responseType": "finish",
      "participantID": "9fswdnh7raalrd1eq3ewsgygjjmddp4x",
      "problems_seen": [
        "Solve this anagram: AALRYS",
        "Next week I am going to have lunch with my friend, visit the new art gallery, go to the Social Security office, and have my teeth checked at the dentist. My friend cannot meet me on Wednesday; the Social Security office is closed weekends; the dentist has office hours only on Tuesday, Friday, and Saturday; the art gallery is closed Tuesday, Thursday, and weekends. On what single day can I do everything I have planned?"
      ]
    },
    {
      "rt": 3803.199999999255,
      "response": "3",
      "stimulus": "<center><p>How close are you towards solving this problem?</p></center>",
      "trial_type": "html-slider-response",
      "trial_index": 29,
      "time_elapsed": 232053,
      "internal_node_id": "0.0-4.1-1.10-1.10",
      "responseType": "finish",
      "participantID": "9fswdnh7raalrd1eq3ewsgygjjmddp4x",
      "problems_seen": [
        "Solve this anagram: AALRYS",
        "Next week I am going to have lunch with my friend, visit the new art gallery, go to the Social Security office, and have my teeth checked at the dentist. My friend cannot meet me on Wednesday; the Social Security office is closed weekends; the dentist has office hours only on Tuesday, Friday, and Saturday; the art gallery is closed Tuesday, Thursday, and weekends. On what single day can I do everything I have planned?"
      ]
    },
    {
      "rt": 2677,
      "responses": "{\"Q0\":\"\"}",
      "trial_type": "survey-text",
      "trial_index": 30,
      "time_elapsed": 234732,
      "internal_node_id": "0.0-4.1-2.1",
      "responseType": "finish",
      "participantID": "9fswdnh7raalrd1eq3ewsgygjjmddp4x",
      "problems_seen": [
        "Solve this anagram: AALRYS",
        "Next week I am going to have lunch with my friend, visit the new art gallery, go to the Social Security office, and have my teeth checked at the dentist. My friend cannot meet me on Wednesday; the Social Security office is closed weekends; the dentist has office hours only on Tuesday, Friday, and Saturday; the art gallery is closed Tuesday, Thursday, and weekends. On what single day can I do everything I have planned?"
      ]
    },
    {
      "rt": 11968,
      "responses": "{\"Q0\":0,\"Q1\":5,\"Q2\":0}",
      "trial_type": "survey-likert",
      "trial_index": 31,
      "time_elapsed": 246702,
      "internal_node_id": "0.0-4.1-3.1-0.1",
      "responseType": "finish",
      "participantID": "9fswdnh7raalrd1eq3ewsgygjjmddp4x",
      "problems_seen": [
        "Solve this anagram: AALRYS",
        "Next week I am going to have lunch with my friend, visit the new art gallery, go to the Social Security office, and have my teeth checked at the dentist. My friend cannot meet me on Wednesday; the Social Security office is closed weekends; the dentist has office hours only on Tuesday, Friday, and Saturday; the art gallery is closed Tuesday, Thursday, and weekends. On what single day can I do everything I have planned?"
      ]
    }
  ],
  "__v": 0
},{
  "_id": {
    "$oid": "620ada038141480004e893cc"
  },
  "data": [
    {
      "rt": 5027,
      "responses": "{\"Q0\":\" I consent to participate\"}",
      "trial_type": "survey-multi-choice",
      "trial_index": 0,
      "time_elapsed": 5034,
      "internal_node_id": "0.0-0.0",
      "responseType": "finish",
      "participantID": "nrhcbomg6gfdqb4yacf0dq4oal2vm1g2",
      "problems_seen": [
        "A group of soldiers were standing facing west. Their sergeant shouted at them: Right turn! U-turn! Left turn! U-turn! Right turn! U-turn! Left turn! Right turn! In which direction are they now facing?",
        "Solve this anagram: AALRYS"
      ]
    },
    {
      "trial_type": "call-function",
      "trial_index": 1,
      "time_elapsed": 5038,
      "internal_node_id": "0.0-1.0",
      "responseType": "finish",
      "participantID": "nrhcbomg6gfdqb4yacf0dq4oal2vm1g2",
      "problems_seen": [
        "A group of soldiers were standing facing west. Their sergeant shouted at them: Right turn! U-turn! Left turn! U-turn! Right turn! U-turn! Left turn! Right turn! In which direction are they now facing?",
        "Solve this anagram: AALRYS"
      ]
    },
    {
      "view_history": "[{\"page_index\":0,\"viewing_time\":1973},{\"page_index\":1,\"viewing_time\":23465},{\"page_index\":2,\"viewing_time\":3950}]",
      "rt": 29389,
      "trial_type": "instructions",
      "trial_index": 2,
      "time_elapsed": 34429,
      "internal_node_id": "0.0-2.0",
      "responseType": "finish",
      "participantID": "nrhcbomg6gfdqb4yacf0dq4oal2vm1g2",
      "problems_seen": [
        "A group of soldiers were standing facing west. Their sergeant shouted at them: Right turn! U-turn! Left turn! U-turn! Right turn! U-turn! Left turn! Right turn! In which direction are they now facing?",
        "Solve this anagram: AALRYS"
      ]
    },
    {
      "rt": 6492,
      "responses": "{\"Q0\":\"DONE when the problem is solved and SKIP when I want to move on the next problem\"}",
      "trial_type": "survey-multi-choice",
      "trial_index": 3,
      "time_elapsed": 40923,
      "internal_node_id": "0.0-3.0",
      "responseType": "finish",
      "participantID": "nrhcbomg6gfdqb4yacf0dq4oal2vm1g2",
      "problems_seen": [
        "A group of soldiers were standing facing west. Their sergeant shouted at them: Right turn! U-turn! Left turn! U-turn! Right turn! U-turn! Left turn! Right turn! In which direction are they now facing?",
        "Solve this anagram: AALRYS"
      ]
    },
    {
      "rt": 2401,
      "stimulus": "<blockquote>\n  <p>Now a problem will be shown to you. <br><br> Press 'v' to view the problem.</p>\n</blockquote>",
      "key_press": 86,
      "trial_type": "html-keyboard-response",
      "trial_index": 4,
      "time_elapsed": 43325,
      "internal_node_id": "0.0-4.0-0.0",
      "responseType": "finish",
      "participantID": "nrhcbomg6gfdqb4yacf0dq4oal2vm1g2",
      "problems_seen": [
        "A group of soldiers were standing facing west. Their sergeant shouted at them: Right turn! U-turn! Left turn! U-turn! Right turn! U-turn! Left turn! Right turn! In which direction are they now facing?",
        "Solve this anagram: AALRYS"
      ]
    },
    {
      "rt": 7008,
      "responses": "{\"Q0\":\"\"}",
      "trial_type": "survey-text",
      "trial_index": 5,
      "time_elapsed": 50341,
      "internal_node_id": "0.0-4.0-1.0-0.0",
      "responseType": "finish",
      "participantID": "nrhcbomg6gfdqb4yacf0dq4oal2vm1g2",
      "problems_seen": [
        "A group of soldiers were standing facing west. Their sergeant shouted at them: Right turn! U-turn! Left turn! U-turn! Right turn! U-turn! Left turn! Right turn! In which direction are they now facing?",
        "Solve this anagram: AALRYS"
      ]
    },
    {
      "rt": 2857.7000000029802,
      "response": "8",
      "stimulus": "<center><p>How close are you towards solving this problem?</p></center>",
      "trial_type": "html-slider-response",
      "trial_index": 6,
      "time_elapsed": 53201,
      "internal_node_id": "0.0-4.0-1.0-1.0",
      "responseType": "finish",
      "participantID": "nrhcbomg6gfdqb4yacf0dq4oal2vm1g2",
      "problems_seen": [
        "A group of soldiers were standing facing west. Their sergeant shouted at them: Right turn! U-turn! Left turn! U-turn! Right turn! U-turn! Left turn! Right turn! In which direction are they now facing?",
        "Solve this anagram: AALRYS"
      ]
    },
    {
      "rt": 7008,
      "responses": "{\"Q0\":\"\"}",
      "trial_type": "survey-text",
      "trial_index": 7,
      "time_elapsed": 60211,
      "internal_node_id": "0.0-4.0-1.1-0.1",
      "responseType": "finish",
      "participantID": "nrhcbomg6gfdqb4yacf0dq4oal2vm1g2",
      "problems_seen": [
        "A group of soldiers were standing facing west. Their sergeant shouted at them: Right turn! U-turn! Left turn! U-turn! Right turn! U-turn! Left turn! Right turn! In which direction are they now facing?",
        "Solve this anagram: AALRYS"
      ]
    },
    {
      "rt": 3091.9000000059605,
      "response": "21",
      "stimulus": "<center><p>How close are you towards solving this problem?</p></center>",
      "trial_type": "html-slider-response",
      "trial_index": 8,
      "time_elapsed": 63304,
      "internal_node_id": "0.0-4.0-1.1-1.1",
      "responseType": "finish",
      "participantID": "nrhcbomg6gfdqb4yacf0dq4oal2vm1g2",
      "problems_seen": [
        "A group of soldiers were standing facing west. Their sergeant shouted at them: Right turn! U-turn! Left turn! U-turn! Right turn! U-turn! Left turn! Right turn! In which direction are they now facing?",
        "Solve this anagram: AALRYS"
      ]
    },
    {
      "rt": 7011,
      "responses": "{\"Q0\":\"\"}",
      "trial_type": "survey-text",
      "trial_index": 9,
      "time_elapsed": 70317,
      "internal_node_id": "0.0-4.0-1.2-0.2",
      "responseType": "finish",
      "participantID": "nrhcbomg6gfdqb4yacf0dq4oal2vm1g2",
      "problems_seen": [
        "A group of soldiers were standing facing west. Their sergeant shouted at them: Right turn! U-turn! Left turn! U-turn! Right turn! U-turn! Left turn! Right turn! In which direction are they now facing?",
        "Solve this anagram: AALRYS"
      ]
    },
    {
      "rt": 1998.2999999970198,
      "response": "13",
      "stimulus": "<center><p>How close are you towards solving this problem?</p></center>",
      "trial_type": "html-slider-response",
      "trial_index": 10,
      "time_elapsed": 72316,
      "internal_node_id": "0.0-4.0-1.2-1.2",
      "responseType": "finish",
      "participantID": "nrhcbomg6gfdqb4yacf0dq4oal2vm1g2",
      "problems_seen": [
        "A group of soldiers were standing facing west. Their sergeant shouted at them: Right turn! U-turn! Left turn! U-turn! Right turn! U-turn! Left turn! Right turn! In which direction are they now facing?",
        "Solve this anagram: AALRYS"
      ]
    },
    {
      "rt": 7016,
      "responses": "{\"Q0\":\"\"}",
      "trial_type": "survey-text",
      "trial_index": 11,
      "time_elapsed": 79334,
      "internal_node_id": "0.0-4.0-1.3-0.3",
      "responseType": "finish",
      "participantID": "nrhcbomg6gfdqb4yacf0dq4oal2vm1g2",
      "problems_seen": [
        "A group of soldiers were standing facing west. Their sergeant shouted at them: Right turn! U-turn! Left turn! U-turn! Right turn! U-turn! Left turn! Right turn! In which direction are they now facing?",
        "Solve this anagram: AALRYS"
      ]
    },
    {
      "rt": 4901.399999991059,
      "response": "51",
      "stimulus": "<center><p>How close are you towards solving this problem?</p></center>",
      "trial_type": "html-slider-response",
      "trial_index": 12,
      "time_elapsed": 84237,
      "internal_node_id": "0.0-4.0-1.3-1.3",
      "responseType": "finish",
      "participantID": "nrhcbomg6gfdqb4yacf0dq4oal2vm1g2",
      "problems_seen": [
        "A group of soldiers were standing facing west. Their sergeant shouted at them: Right turn! U-turn! Left turn! U-turn! Right turn! U-turn! Left turn! Right turn! In which direction are they now facing?",
        "Solve this anagram: AALRYS"
      ]
    },
    {
      "rt": 7002,
      "responses": "{\"Q0\":\"SKIP\"}",
      "trial_type": "survey-text",
      "trial_index": 13,
      "time_elapsed": 91241,
      "internal_node_id": "0.0-4.0-1.4-0.4",
      "responseType": "finish",
      "participantID": "nrhcbomg6gfdqb4yacf0dq4oal2vm1g2",
      "problems_seen": [
        "A group of soldiers were standing facing west. Their sergeant shouted at them: Right turn! U-turn! Left turn! U-turn! Right turn! U-turn! Left turn! Right turn! In which direction are they now facing?",
        "Solve this anagram: AALRYS"
      ]
    },
    {
      "rt": 7409.600000008941,
      "response": "50",
      "stimulus": "<center><p>How close are you towards solving this problem?</p></center>",
      "trial_type": "html-slider-response",
      "trial_index": 14,
      "time_elapsed": 98651,
      "internal_node_id": "0.0-4.0-1.4-1.4",
      "responseType": "finish",
      "participantID": "nrhcbomg6gfdqb4yacf0dq4oal2vm1g2",
      "problems_seen": [
        "A group of soldiers were standing facing west. Their sergeant shouted at them: Right turn! U-turn! Left turn! U-turn! Right turn! U-turn! Left turn! Right turn! In which direction are they now facing?",
        "Solve this anagram: AALRYS"
      ]
    },
    {
      "rt": 3590,
      "responses": "{\"Q0\":\"\"}",
      "trial_type": "survey-text",
      "trial_index": 15,
      "time_elapsed": 102242,
      "internal_node_id": "0.0-4.0-2.0",
      "responseType": "finish",
      "participantID": "nrhcbomg6gfdqb4yacf0dq4oal2vm1g2",
      "problems_seen": [
        "A group of soldiers were standing facing west. Their sergeant shouted at them: Right turn! U-turn! Left turn! U-turn! Right turn! U-turn! Left turn! Right turn! In which direction are they now facing?",
        "Solve this anagram: AALRYS"
      ]
    },
    {
      "rt": 10803,
      "responses": "{\"Q0\":0,\"Q1\":4,\"Q2\":0}",
      "trial_type": "survey-likert",
      "trial_index": 16,
      "time_elapsed": 113047,
      "internal_node_id": "0.0-4.0-3.0-0.0",
      "responseType": "finish",
      "participantID": "nrhcbomg6gfdqb4yacf0dq4oal2vm1g2",
      "problems_seen": [
        "A group of soldiers were standing facing west. Their sergeant shouted at them: Right turn! U-turn! Left turn! U-turn! Right turn! U-turn! Left turn! Right turn! In which direction are they now facing?",
        "Solve this anagram: AALRYS"
      ]
    },
    {
      "rt": 1163,
      "stimulus": "<blockquote>\n  <p>Now a problem will be shown to you. <br><br> Press 'v' to view the problem.</p>\n</blockquote>",
      "key_press": 86,
      "trial_type": "html-keyboard-response",
      "trial_index": 17,
      "time_elapsed": 114212,
      "internal_node_id": "0.0-4.1-0.1",
      "responseType": "finish",
      "participantID": "nrhcbomg6gfdqb4yacf0dq4oal2vm1g2",
      "problems_seen": [
        "A group of soldiers were standing facing west. Their sergeant shouted at them: Right turn! U-turn! Left turn! U-turn! Right turn! U-turn! Left turn! Right turn! In which direction are they now facing?",
        "Solve this anagram: AALRYS"
      ]
    },
    {
      "rt": 7012,
      "responses": "{\"Q0\":\"\"}",
      "trial_type": "survey-text",
      "trial_index": 18,
      "time_elapsed": 121233,
      "internal_node_id": "0.0-4.1-1.5-0.5",
      "responseType": "finish",
      "participantID": "nrhcbomg6gfdqb4yacf0dq4oal2vm1g2",
      "problems_seen": [
        "A group of soldiers were standing facing west. Their sergeant shouted at them: Right turn! U-turn! Left turn! U-turn! Right turn! U-turn! Left turn! Right turn! In which direction are they now facing?",
        "Solve this anagram: AALRYS"
      ]
    },
    {
      "rt": 3240.5999999940395,
      "response": "13",
      "stimulus": "<center><p>How close are you towards solving this problem?</p></center>",
      "trial_type": "html-slider-response",
      "trial_index": 19,
      "time_elapsed": 124475,
      "internal_node_id": "0.0-4.1-1.5-1.5",
      "responseType": "finish",
      "participantID": "nrhcbomg6gfdqb4yacf0dq4oal2vm1g2",
      "problems_seen": [
        "A group of soldiers were standing facing west. Their sergeant shouted at them: Right turn! U-turn! Left turn! U-turn! Right turn! U-turn! Left turn! Right turn! In which direction are they now facing?",
        "Solve this anagram: AALRYS"
      ]
    },
    {
      "rt": 7014,
      "responses": "{\"Q0\":\"\"}",
      "trial_type": "survey-text",
      "trial_index": 20,
      "time_elapsed": 131490,
      "internal_node_id": "0.0-4.1-1.6-0.6",
      "responseType": "finish",
      "participantID": "nrhcbomg6gfdqb4yacf0dq4oal2vm1g2",
      "problems_seen": [
        "A group of soldiers were standing facing west. Their sergeant shouted at them: Right turn! U-turn! Left turn! U-turn! Right turn! U-turn! Left turn! Right turn! In which direction are they now facing?",
        "Solve this anagram: AALRYS"
      ]
    },
    {
      "rt": 2758,
      "response": "6",
      "stimulus": "<center><p>How close are you towards solving this problem?</p></center>",
      "trial_type": "html-slider-response",
      "trial_index": 21,
      "time_elapsed": 134250,
      "internal_node_id": "0.0-4.1-1.6-1.6",
      "responseType": "finish",
      "participantID": "nrhcbomg6gfdqb4yacf0dq4oal2vm1g2",
      "problems_seen": [
        "A group of soldiers were standing facing west. Their sergeant shouted at them: Right turn! U-turn! Left turn! U-turn! Right turn! U-turn! Left turn! Right turn! In which direction are they now facing?",
        "Solve this anagram: AALRYS"
      ]
    },
    {
      "rt": 7014,
      "responses": "{\"Q0\":\"SALARY\"}",
      "trial_type": "survey-text",
      "trial_index": 22,
      "time_elapsed": 141267,
      "internal_node_id": "0.0-4.1-1.7-0.7",
      "responseType": "finish",
      "participantID": "nrhcbomg6gfdqb4yacf0dq4oal2vm1g2",
      "problems_seen": [
        "A group of soldiers were standing facing west. Their sergeant shouted at them: Right turn! U-turn! Left turn! U-turn! Right turn! U-turn! Left turn! Right turn! In which direction are they now facing?",
        "Solve this anagram: AALRYS"
      ]
    },
    {
      "rt": 2841.7999999970198,
      "response": "100",
      "stimulus": "<center><p>How close are you towards solving this problem?</p></center>",
      "trial_type": "html-slider-response",
      "trial_index": 23,
      "time_elapsed": 144110,
      "internal_node_id": "0.0-4.1-1.7-1.7",
      "responseType": "finish",
      "participantID": "nrhcbomg6gfdqb4yacf0dq4oal2vm1g2",
      "problems_seen": [
        "A group of soldiers were standing facing west. Their sergeant shouted at them: Right turn! U-turn! Left turn! U-turn! Right turn! U-turn! Left turn! Right turn! In which direction are they now facing?",
        "Solve this anagram: AALRYS"
      ]
    },
    {
      "rt": 3431,
      "responses": "{\"Q0\":\"DONE\"}",
      "trial_type": "survey-text",
      "trial_index": 24,
      "time_elapsed": 147542,
      "internal_node_id": "0.0-4.1-1.8-0.8",
      "responseType": "finish",
      "participantID": "nrhcbomg6gfdqb4yacf0dq4oal2vm1g2",
      "problems_seen": [
        "A group of soldiers were standing facing west. Their sergeant shouted at them: Right turn! U-turn! Left turn! U-turn! Right turn! U-turn! Left turn! Right turn! In which direction are they now facing?",
        "Solve this anagram: AALRYS"
      ]
    },
    {
      "rt": 2528.5999999940395,
      "response": "100",
      "stimulus": "<center><p>How close are you towards solving this problem?</p></center>",
      "trial_type": "html-slider-response",
      "trial_index": 25,
      "time_elapsed": 150077,
      "internal_node_id": "0.0-4.1-1.8-1.8",
      "responseType": "finish",
      "participantID": "nrhcbomg6gfdqb4yacf0dq4oal2vm1g2",
      "problems_seen": [
        "A group of soldiers were standing facing west. Their sergeant shouted at them: Right turn! U-turn! Left turn! U-turn! Right turn! U-turn! Left turn! Right turn! In which direction are they now facing?",
        "Solve this anagram: AALRYS"
      ]
    },
    {
      "rt": 4116,
      "responses": "{\"Q0\":\"SALARY\"}",
      "trial_type": "survey-text",
      "trial_index": 26,
      "time_elapsed": 154194,
      "internal_node_id": "0.0-4.1-2.1",
      "responseType": "finish",
      "participantID": "nrhcbomg6gfdqb4yacf0dq4oal2vm1g2",
      "problems_seen": [
        "A group of soldiers were standing facing west. Their sergeant shouted at them: Right turn! U-turn! Left turn! U-turn! Right turn! U-turn! Left turn! Right turn! In which direction are they now facing?",
        "Solve this anagram: AALRYS"
      ]
    },
    {
      "rt": 11213,
      "responses": "{\"Q0\":6,\"Q1\":2,\"Q2\":1}",
