[{
  "_id": {
    "$oid": "621d4e9b389ea00004acd765"
  },
  "data": {
    "responseType": "start",
    "participantID": "fgu1z0f5el5v010ydaalh53k530bdxup",
    "problems_seen": [
      "Eric is trying to get in shape. He wants to do this by climbing stairs. He starts on the third floor, climbs up five stories, down seven, up six, down three, up four, down four, up five, down three, and then up two again. What floor is he on now?",
      "Solve this anagram: AYKAWLJ"
    ]
  },
  "__v": 0
},{
  "_id": {
    "$oid": "621d4f5d389ea00004acd766"
  },
  "data": [
    {
      "rt": 7459,
      "responses": "{\"Q0\":\" I consent to participate\"}",
      "trial_type": "survey-multi-choice",
      "trial_index": 0,
      "time_elapsed": 7462,
      "internal_node_id": "0.0-0.0",
      "responseType": "finish",
      "participantID": "fgu1z0f5el5v010ydaalh53k530bdxup",
      "problems_seen": [
        "Eric is trying to get in shape. He wants to do this by climbing stairs. He starts on the third floor, climbs up five stories, down seven, up six, down three, up four, down four, up five, down three, and then up two again. What floor is he on now?",
        "Solve this anagram: AYKAWLJ"
      ]
    },
    {
      "trial_type": "call-function",
      "trial_index": 1,
      "time_elapsed": 7464,
      "internal_node_id": "0.0-1.0",
      "responseType": "finish",
      "participantID": "fgu1z0f5el5v010ydaalh53k530bdxup",
      "problems_seen": [
        "Eric is trying to get in shape. He wants to do this by climbing stairs. He starts on the third floor, climbs up five stories, down seven, up six, down three, up four, down four, up five, down three, and then up two again. What floor is he on now?",
        "Solve this anagram: AYKAWLJ"
      ]
    },
    {
      "view_history": "[{\"page_index\":0,\"viewing_time\":3782},{\"page_index\":1,\"viewing_time\":19432},{\"page_index\":2,\"viewing_time\":14312},{\"page_index\":3,\"viewing_time\":4223}]",
      "rt": 41749,
      "trial_type": "instructions",
      "trial_index": 2,
      "time_elapsed": 49213,
      "internal_node_id": "0.0-2.0",
      "responseType": "finish",
      "participantID": "fgu1z0f5el5v010ydaalh53k530bdxup",
      "problems_seen": [
        "Eric is trying to get in shape. He wants to do this by climbing stairs. He starts on the third floor, climbs up five stories, down seven, up six, down three, up four, down four, up five, down three, and then up two again. What floor is he on now?",
        "Solve this anagram: AYKAWLJ"
      ]
    },
    {
      "rt": 2112,
      "stimulus": "<blockquote>\n  <p>Now a problem will be shown to you. <br><br> Press 'v' to view the problem.</p>\n</blockquote>",
      "key_press": 86,
      "trial_type": "html-keyboard-response",
      "trial_index": 3,
      "time_elapsed": 51326,
      "internal_node_id": "0.0-3.0-0.0",
      "responseType": "finish",
      "participantID": "fgu1z0f5el5v010ydaalh53k530bdxup",
      "problems_seen": [
        "Eric is trying to get in shape. He wants to do this by climbing stairs. He starts on the third floor, climbs up five stories, down seven, up six, down three, up four, down four, up five, down three, and then up two again. What floor is he on now?",
        "Solve this anagram: AYKAWLJ"
      ]
    },
    {
      "rt": 10004,
      "responses": "{\"Q0\":\"\"}",
      "trial_type": "survey-text",
      "trial_index": 4,
      "time_elapsed": 61339,
      "internal_node_id": "0.0-3.0-1.0-0.0",
      "responseType": "finish",
      "participantID": "fgu1z0f5el5v010ydaalh53k530bdxup",
      "problems_seen": [
        "Eric is trying to get in shape. He wants to do this by climbing stairs. He starts on the third floor, climbs up five stories, down seven, up six, down three, up four, down four, up five, down three, and then up two again. What floor is he on now?",
        "Solve this anagram: AYKAWLJ"
      ]
    },
    {
      "rt": 5440.399999976158,
      "response": "47",
      "stimulus": "<center><p>How close are you towards solving this problem?</p></center>",
      "trial_type": "html-slider-response",
      "trial_index": 5,
      "time_elapsed": 66781,
      "internal_node_id": "0.0-3.0-1.0-1.0",
      "responseType": "finish",
      "participantID": "fgu1z0f5el5v010ydaalh53k530bdxup",
      "problems_seen": [
        "Eric is trying to get in shape. He wants to do this by climbing stairs. He starts on the third floor, climbs up five stories, down seven, up six, down three, up four, down four, up five, down three, and then up two again. What floor is he on now?",
        "Solve this anagram: AYKAWLJ"
      ]
    },
    {
      "rt": 10013,
      "responses": "{\"Q0\":\"\"}",
      "trial_type": "survey-text",
      "trial_index": 6,
      "time_elapsed": 76798,
      "internal_node_id": "0.0-3.0-1.1-0.1",
      "responseType": "finish",
      "participantID": "fgu1z0f5el5v010ydaalh53k530bdxup",
      "problems_seen": [
        "Eric is trying to get in shape. He wants to do this by climbing stairs. He starts on the third floor, climbs up five stories, down seven, up six, down three, up four, down four, up five, down three, and then up two again. What floor is he on now?",
        "Solve this anagram: AYKAWLJ"
      ]
    },
    {
      "rt": 2461.5999999046326,
      "response": "100",
      "stimulus": "<center><p>How close are you towards solving this problem?</p></center>",
      "trial_type": "html-slider-response",
      "trial_index": 7,
      "time_elapsed": 79261,
      "internal_node_id": "0.0-3.0-1.1-1.1",
      "responseType": "finish",
      "participantID": "fgu1z0f5el5v010ydaalh53k530bdxup",
      "problems_seen": [
        "Eric is trying to get in shape. He wants to do this by climbing stairs. He starts on the third floor, climbs up five stories, down seven, up six, down three, up four, down four, up five, down three, and then up two again. What floor is he on now?",
        "Solve this anagram: AYKAWLJ"
      ]
    },
    {
      "rt": 3182,
      "responses": "{\"Q0\":\"10\"}",
      "trial_type": "survey-text",
      "trial_index": 8,
      "time_elapsed": 82445,
      "internal_node_id": "0.0-3.0-1.2-0.2",
      "responseType": "finish",
      "participantID": "fgu1z0f5el5v010ydaalh53k530bdxup",
      "problems_seen": [
        "Eric is trying to get in shape. He wants to do this by climbing stairs. He starts on the third floor, climbs up five stories, down seven, up six, down three, up four, down four, up five, down three, and then up two again. What floor is he on now?",
        "Solve this anagram: AYKAWLJ"
      ]
    },
    {
      "rt": 3462.399999976158,
      "response": "100",
      "stimulus": "<center><p>How close are you towards solving this problem?</p></center>",
      "trial_type": "html-slider-response",
      "trial_index": 9,
      "time_elapsed": 85909,
      "internal_node_id": "0.0-3.0-1.2-1.2",
      "responseType": "finish",
      "participantID": "fgu1z0f5el5v010ydaalh53k530bdxup",
      "problems_seen": [
        "Eric is trying to get in shape. He wants to do this by climbing stairs. He starts on the third floor, climbs up five stories, down seven, up six, down three, up four, down four, up five, down three, and then up two again. What floor is he on now?",
        "Solve this anagram: AYKAWLJ"
      ]
    },
    {
      "rt": 8055,
      "responses": "{\"Q0\":1,\"Q1\":1}",
      "trial_type": "survey-likert",
      "trial_index": 10,
      "time_elapsed": 93966,
      "internal_node_id": "0.0-3.0-2.0-0.0",
      "responseType": "finish",
      "participantID": "fgu1z0f5el5v010ydaalh53k530bdxup",
      "problems_seen": [
        "Eric is trying to get in shape. He wants to do this by climbing stairs. He starts on the third floor, climbs up five stories, down seven, up six, down three, up four, down four, up five, down three, and then up two again. What floor is he on now?",
        "Solve this anagram: AYKAWLJ"
      ]
    },
    {
      "rt": 2366,
      "stimulus": "<blockquote>\n  <p>Now a problem will be shown to you. <br><br> Press 'v' to view the problem.</p>\n</blockquote>",
      "key_press": 86,
      "trial_type": "html-keyboard-response",
      "trial_index": 11,
      "time_elapsed": 96333,
      "internal_node_id": "0.0-3.1-0.1",
      "responseType": "finish",
      "participantID": "fgu1z0f5el5v010ydaalh53k530bdxup",
      "problems_seen": [
        "Eric is trying to get in shape. He wants to do this by climbing stairs. He starts on the third floor, climbs up five stories, down seven, up six, down three, up four, down four, up five, down three, and then up two again. What floor is he on now?",
        "Solve this anagram: AYKAWLJ"
      ]
    },
    {
      "rt": 10000,
      "responses": "{\"Q0\":\"\"}",
      "trial_type": "survey-text",
      "trial_index": 12,
      "time_elapsed": 106335,
      "internal_node_id": "0.0-3.1-1.3-0.3",
      "responseType": "finish",
      "participantID": "fgu1z0f5el5v010ydaalh53k530bdxup",
      "problems_seen": [
        "Eric is trying to get in shape. He wants to do this by climbing stairs. He starts on the third floor, climbs up five stories, down seven, up six, down three, up four, down four, up five, down three, and then up two again. What floor is he on now?",
        "Solve this anagram: AYKAWLJ"
      ]
    },
    {
      "rt": 4309.299999952316,
      "response": "39",
      "stimulus": "<center><p>How close are you towards solving this problem?</p></center>",
      "trial_type": "html-slider-response",
      "trial_index": 13,
      "time_elapsed": 110645,
      "internal_node_id": "0.0-3.1-1.3-1.3",
      "responseType": "finish",
      "participantID": "fgu1z0f5el5v010ydaalh53k530bdxup",
      "problems_seen": [
        "Eric is trying to get in shape. He wants to do this by climbing stairs. He starts on the third floor, climbs up five stories, down seven, up six, down three, up four, down four, up five, down three, and then up two again. What floor is he on now?",
        "Solve this anagram: AYKAWLJ"
      ]
    },
    {
      "rt": 10003,
      "responses": "{\"Q0\":\";AWL\"}",
      "trial_type": "survey-text",
      "trial_index": 14,
      "time_elapsed": 120653,
      "internal_node_id": "0.0-3.1-1.4-0.4",
      "responseType": "finish",
      "participantID": "fgu1z0f5el5v010ydaalh53k530bdxup",
      "problems_seen": [
        "Eric is trying to get in shape. He wants to do this by climbing stairs. He starts on the third floor, climbs up five stories, down seven, up six, down three, up four, down four, up five, down three, and then up two again. What floor is he on now?",
        "Solve this anagram: AYKAWLJ"
      ]
    },
    {
      "rt": 2511.0999999046326,
      "response": "47",
      "stimulus": "<center><p>How close are you towards solving this problem?</p></center>",
      "trial_type": "html-slider-response",
      "trial_index": 15,
      "time_elapsed": 123164,
      "internal_node_id": "0.0-3.1-1.4-1.4",
      "responseType": "finish",
      "participantID": "fgu1z0f5el5v010ydaalh53k530bdxup",
      "problems_seen": [
        "Eric is trying to get in shape. He wants to do this by climbing stairs. He starts on the third floor, climbs up five stories, down seven, up six, down three, up four, down four, up five, down three, and then up two again. What floor is he on now?",
        "Solve this anagram: AYKAWLJ"
      ]
    },
    {
      "rt": 10805,
      "responses": "{\"Q0\":\"\"}",
      "trial_type": "survey-text",
      "trial_index": 16,
      "time_elapsed": 133971,
      "internal_node_id": "0.0-3.1-1.5-0.5",
      "responseType": "finish",
      "participantID": "fgu1z0f5el5v010ydaalh53k530bdxup",
      "problems_seen": [
        "Eric is trying to get in shape. He wants to do this by climbing stairs. He starts on the third floor, climbs up five stories, down seven, up six, down three, up four, down four, up five, down three, and then up two again. What floor is he on now?",
        "Solve this anagram: AYKAWLJ"
      ]
    },
    {
      "rt": 6477.700000047684,
      "response": "73",
      "stimulus": "<center><p>How close are you towards solving this problem?</p></center>",
      "trial_type": "html-slider-response",
      "trial_index": 17,
      "time_elapsed": 140451,
      "internal_node_id": "0.0-3.1-1.5-1.5",
      "responseType": "finish",
      "participantID": "fgu1z0f5el5v010ydaalh53k530bdxup",
      "problems_seen": [
        "Eric is trying to get in shape. He wants to do this by climbing stairs. He starts on the third floor, climbs up five stories, down seven, up six, down three, up four, down four, up five, down three, and then up two again. What floor is he on now?",
        "Solve this anagram: AYKAWLJ"
      ]
    },
    {
      "rt": 10000,
      "responses": "{\"Q0\":\"JAW\"}",
      "trial_type": "survey-text",
      "trial_index": 18,
      "time_elapsed": 150453,
      "internal_node_id": "0.0-3.1-1.6-0.6",
      "responseType": "finish",
      "participantID": "fgu1z0f5el5v010ydaalh53k530bdxup",
      "problems_seen": [
        "Eric is trying to get in shape. He wants to do this by climbing stairs. He starts on the third floor, climbs up five stories, down seven, up six, down three, up four, down four, up five, down three, and then up two again. What floor is he on now?",
        "Solve this anagram: AYKAWLJ"
      ]
    },
    {
      "rt": 2966.100000023842,
      "response": "58",
      "stimulus": "<center><p>How close are you towards solving this problem?</p></center>",
      "trial_type": "html-slider-response",
      "trial_index": 19,
      "time_elapsed": 153420,
      "internal_node_id": "0.0-3.1-1.6-1.6",
      "responseType": "finish",
      "participantID": "fgu1z0f5el5v010ydaalh53k530bdxup",
      "problems_seen": [
        "Eric is trying to get in shape. He wants to do this by climbing stairs. He starts on the third floor, climbs up five stories, down seven, up six, down three, up four, down four, up five, down three, and then up two again. What floor is he on now?",
        "Solve this anagram: AYKAWLJ"
      ]
    },
    {
      "rt": 702,
      "responses": "{\"Q0\":\"\"}",
      "trial_type": "survey-text",
      "trial_index": 20,
      "time_elapsed": 154124,
      "internal_node_id": "0.0-3.1-1.7-0.7",
      "responseType": "finish",
      "participantID": "fgu1z0f5el5v010ydaalh53k530bdxup",
      "problems_seen": [
        "Eric is trying to get in shape. He wants to do this by climbing stairs. He starts on the third floor, climbs up five stories, down seven, up six, down three, up four, down four, up five, down three, and then up two again. What floor is he on now?",
        "Solve this anagram: AYKAWLJ"
      ]
    },
    {
      "rt": 3031.399999976158,
      "response": "75",
      "stimulus": "<center><p>How close are you towards solving this problem?</p></center>",
      "trial_type": "html-slider-response",
      "trial_index": 21,
      "time_elapsed": 157156,
      "internal_node_id": "0.0-3.1-1.7-1.7",
      "responseType": "finish",
      "participantID": "fgu1z0f5el5v010ydaalh53k530bdxup",
      "problems_seen": [
        "Eric is trying to get in shape. He wants to do this by climbing stairs. He starts on the third floor, climbs up five stories, down seven, up six, down three, up four, down four, up five, down three, and then up two again. What floor is he on now?",
        "Solve this anagram: AYKAWLJ"
      ]
    },
    {
      "rt": 10009,
      "responses": "{\"Q0\":\"W\"}",
      "trial_type": "survey-text",
      "trial_index": 22,
      "time_elapsed": 168328,
      "internal_node_id": "0.0-3.1-1.8-0.8",
      "responseType": "finish",
      "participantID": "fgu1z0f5el5v010ydaalh53k530bdxup",
      "problems_seen": [
        "Eric is trying to get in shape. He wants to do this by climbing stairs. He starts on the third floor, climbs up five stories, down seven, up six, down three, up four, down four, up five, down three, and then up two again. What floor is he on now?",
        "Solve this anagram: AYKAWLJ"
      ]
    },
    {
      "rt": 3162.6999999284744,
      "response": "43",
      "stimulus": "<center><p>How close are you towards solving this problem?</p></center>",
      "trial_type": "html-slider-response",
      "trial_index": 23,
      "time_elapsed": 171492,
      "internal_node_id": "0.0-3.1-1.8-1.8",
      "responseType": "finish",
      "participantID": "fgu1z0f5el5v010ydaalh53k530bdxup",
      "problems_seen": [
        "Eric is trying to get in shape. He wants to do this by climbing stairs. He starts on the third floor, climbs up five stories, down seven, up six, down three, up four, down four, up five, down three, and then up two again. What floor is he on now?",
        "Solve this anagram: AYKAWLJ"
      ]
    },
    {
      "rt": 10008,
      "responses": "{\"Q0\":\"WAL\"}",
      "trial_type": "survey-text",
      "trial_index": 24,
      "time_elapsed": 181503,
      "internal_node_id": "0.0-3.1-1.9-0.9",
      "responseType": "finish",
      "participantID": "fgu1z0f5el5v010ydaalh53k530bdxup",
      "problems_seen": [
        "Eric is trying to get in shape. He wants to do this by climbing stairs. He starts on the third floor, climbs up five stories, down seven, up six, down three, up four, down four, up five, down three, and then up two again. What floor is he on now?",
        "Solve this anagram: AYKAWLJ"
      ]
    },
    {
      "rt": 2499.399999976158,
      "response": "65",
      "stimulus": "<center><p>How close are you towards solving this problem?</p></center>",
      "trial_type": "html-slider-response",
      "trial_index": 25,
      "time_elapsed": 184002,
      "internal_node_id": "0.0-3.1-1.9-1.9",
      "responseType": "finish",
      "participantID": "fgu1z0f5el5v010ydaalh53k530bdxup",
      "problems_seen": [
        "Eric is trying to get in shape. He wants to do this by climbing stairs. He starts on the third floor, climbs up five stories, down seven, up six, down three, up four, down four, up five, down three, and then up two again. What floor is he on now?",
        "Solve this anagram: AYKAWLJ"
      ]
    },
    {
      "rt": 8026,
      "responses": "{\"Q0\":\"JAYWALK\"}",
      "trial_type": "survey-text",
      "trial_index": 26,
      "time_elapsed": 192035,
      "internal_node_id": "0.0-3.1-1.10-0.10",
      "responseType": "finish",
      "participantID": "fgu1z0f5el5v010ydaalh53k530bdxup",
      "problems_seen": [
        "Eric is trying to get in shape. He wants to do this by climbing stairs. He starts on the third floor, climbs up five stories, down seven, up six, down three, up four, down four, up five, down three, and then up two again. What floor is he on now?",
        "Solve this anagram: AYKAWLJ"
      ]
    },
    {
      "rt": 2254,
      "response": "99",
      "stimulus": "<center><p>How close are you towards solving this problem?</p></center>",
      "trial_type": "html-slider-response",
      "trial_index": 27,
      "time_elapsed": 194290,
      "internal_node_id": "0.0-3.1-1.10-1.10",
      "responseType": "finish",
      "participantID": "fgu1z0f5el5v010ydaalh53k530bdxup",
      "problems_seen": [
        "Eric is trying to get in shape. He wants to do this by climbing stairs. He starts on the third floor, climbs up five stories, down seven, up six, down three, up four, down four, up five, down three, and then up two again. What floor is he on now?",
        "Solve this anagram: AYKAWLJ"
      ]
    },
    {
      "rt": 7081,
      "responses": "{\"Q0\":3,\"Q1\":3}",
      "trial_type": "survey-likert",
      "trial_index": 28,
      "time_elapsed": 201372,
      "internal_node_id": "0.0-3.1-2.1-0.1",
      "responseType": "finish",
      "participantID": "fgu1z0f5el5v010ydaalh53k530bdxup",
      "problems_seen": [
        "Eric is trying to get in shape. He wants to do this by climbing stairs. He starts on the third floor, climbs up five stories, down seven, up six, down three, up four, down four, up five, down three, and then up two again. What floor is he on now?",
        "Solve this anagram: AYKAWLJ"
      ]
    }
  ],
  "__v": 0
},{
  "_id": {
    "$oid": "621d4fa2389ea00004acd767"
  },
  "data": {
    "responseType": "start",
    "participantID": "wqxf77l6dvydyjcg0a1rq7hmlznx30bb",
    "problems_seen": [
      "Lebrun, Lenoir, and Leblanc are, not necessarily in that order, the accountant, warehouseman, and traveling salesman of a firm. The salesman is unmarried. Both Lebrun and Lenoir are married. Lebrun is not the accountant. What job does Lenoir have? Accountant, warehouseman, or salesman?",
      "Solve this anagram: RDUNEF"
    ]
  },
  "__v": 0
},{
  "_id": {
    "$oid": "621d501c389ea00004acd768"
  },
  "data": [
    {
      "rt": 3218,
      "responses": "{\"Q0\":\" I consent to participate\"}",
      "trial_type": "survey-multi-choice",
      "trial_index": 0,
      "time_elapsed": 3228,
      "internal_node_id": "0.0-0.0",
      "responseType": "finish",
      "participantID": "wqxf77l6dvydyjcg0a1rq7hmlznx30bb",
      "problems_seen": [
        "Lebrun, Lenoir, and Leblanc are, not necessarily in that order, the accountant, warehouseman, and traveling salesman of a firm. The salesman is unmarried. Both Lebrun and Lenoir are married. Lebrun is not the accountant. What job does Lenoir have? Accountant, warehouseman, or salesman?",
        "Solve this anagram: RDUNEF"
      ]
    },
    {
      "trial_type": "call-function",
      "trial_index": 1,
      "time_elapsed": 3234,
      "internal_node_id": "0.0-1.0",
      "responseType": "finish",
      "participantID": "wqxf77l6dvydyjcg0a1rq7hmlznx30bb",
      "problems_seen": [
        "Lebrun, Lenoir, and Leblanc are, not necessarily in that order, the accountant, warehouseman, and traveling salesman of a firm. The salesman is unmarried. Both Lebrun and Lenoir are married. Lebrun is not the accountant. What job does Lenoir have? Accountant, warehouseman, or salesman?",
        "Solve this anagram: RDUNEF"
      ]
    },
    {
      "view_history": "[{\"page_index\":0,\"viewing_time\":2224},{\"page_index\":1,\"viewing_time\":19693},{\"page_index\":2,\"viewing_time\":4099},{\"page_index\":3,\"viewing_time\":6125}]",
      "rt": 32144,
      "trial_type": "instructions",
      "trial_index": 2,
      "time_elapsed": 35379,
      "internal_node_id": "0.0-2.0",
      "responseType": "finish",
      "participantID": "wqxf77l6dvydyjcg0a1rq7hmlznx30bb",
      "problems_seen": [
        "Lebrun, Lenoir, and Leblanc are, not necessarily in that order, the accountant, warehouseman, and traveling salesman of a firm. The salesman is unmarried. Both Lebrun and Lenoir are married. Lebrun is not the accountant. What job does Lenoir have? Accountant, warehouseman, or salesman?",
        "Solve this anagram: RDUNEF"
      ]
    },
    {
      "rt": 20431,
      "stimulus": "<blockquote>\n  <p>Now a problem will be shown to you. <br><br> Press 'v' to view the problem.</p>\n</blockquote>",
      "key_press": 86,
      "trial_type": "html-keyboard-response",
      "trial_index": 3,
      "time_elapsed": 55813,
      "internal_node_id": "0.0-3.0-0.0",
      "responseType": "finish",
      "participantID": "wqxf77l6dvydyjcg0a1rq7hmlznx30bb",
      "problems_seen": [
        "Lebrun, Lenoir, and Leblanc are, not necessarily in that order, the accountant, warehouseman, and traveling salesman of a firm. The salesman is unmarried. Both Lebrun and Lenoir are married. Lebrun is not the accountant. What job does Lenoir have? Accountant, warehouseman, or salesman?",
        "Solve this anagram: RDUNEF"
      ]
    },
    {
      "rt": 10000,
      "responses": "{\"Q0\":\"\"}",
      "trial_type": "survey-text",
      "trial_index": 4,
      "time_elapsed": 65827,
      "internal_node_id": "0.0-3.0-1.0-0.0",
      "responseType": "finish",
      "participantID": "wqxf77l6dvydyjcg0a1rq7hmlznx30bb",
      "problems_seen": [
        "Lebrun, Lenoir, and Leblanc are, not necessarily in that order, the accountant, warehouseman, and traveling salesman of a firm. The salesman is unmarried. Both Lebrun and Lenoir are married. Lebrun is not the accountant. What job does Lenoir have? Accountant, warehouseman, or salesman?",
        "Solve this anagram: RDUNEF"
      ]
    },
    {
      "rt": 3725.5,
      "response": "12",
      "stimulus": "<center><p>How close are you towards solving this problem?</p></center>",
      "trial_type": "html-slider-response",
      "trial_index": 5,
      "time_elapsed": 69554,
      "internal_node_id": "0.0-3.0-1.0-1.0",
      "responseType": "finish",
      "participantID": "wqxf77l6dvydyjcg0a1rq7hmlznx30bb",
      "problems_seen": [
        "Lebrun, Lenoir, and Leblanc are, not necessarily in that order, the accountant, warehouseman, and traveling salesman of a firm. The salesman is unmarried. Both Lebrun and Lenoir are married. Lebrun is not the accountant. What job does Lenoir have? Accountant, warehouseman, or salesman?",
        "Solve this anagram: RDUNEF"
      ]
    },
    {
      "rt": 10003,
      "responses": "{\"Q0\":\"accoun\"}",
      "trial_type": "survey-text",
      "trial_index": 6,
      "time_elapsed": 79565,
      "internal_node_id": "0.0-3.0-1.1-0.1",
      "responseType": "finish",
      "participantID": "wqxf77l6dvydyjcg0a1rq7hmlznx30bb",
      "problems_seen": [
        "Lebrun, Lenoir, and Leblanc are, not necessarily in that order, the accountant, warehouseman, and traveling salesman of a firm. The salesman is unmarried. Both Lebrun and Lenoir are married. Lebrun is not the accountant. What job does Lenoir have? Accountant, warehouseman, or salesman?",
        "Solve this anagram: RDUNEF"
      ]
    },
    {
      "rt": 3398.5999999940395,
      "response": "53",
      "stimulus": "<center><p>How close are you towards solving this problem?</p></center>",
      "trial_type": "html-slider-response",
      "trial_index": 7,
      "time_elapsed": 82966,
      "internal_node_id": "0.0-3.0-1.1-1.1",
      "responseType": "finish",
      "participantID": "wqxf77l6dvydyjcg0a1rq7hmlznx30bb",
      "problems_seen": [
        "Lebrun, Lenoir, and Leblanc are, not necessarily in that order, the accountant, warehouseman, and traveling salesman of a firm. The salesman is unmarried. Both Lebrun and Lenoir are married. Lebrun is not the accountant. What job does Lenoir have? Accountant, warehouseman, or salesman?",
        "Solve this anagram: RDUNEF"
      ]
    },
    {
      "rt": 3749,
      "responses": "{\"Q0\":\"accountant\"}",
      "trial_type": "survey-text",
      "trial_index": 8,
      "time_elapsed": 86718,
      "internal_node_id": "0.0-3.0-1.2-0.2",
      "responseType": "finish",
      "participantID": "wqxf77l6dvydyjcg0a1rq7hmlznx30bb",
      "problems_seen": [
        "Lebrun, Lenoir, and Leblanc are, not necessarily in that order, the accountant, warehouseman, and traveling salesman of a firm. The salesman is unmarried. Both Lebrun and Lenoir are married. Lebrun is not the accountant. What job does Lenoir have? Accountant, warehouseman, or salesman?",
        "Solve this anagram: RDUNEF"
      ]
    },
    {
      "rt": 3035.2000000178814,
      "response": "94",
      "stimulus": "<center><p>How close are you towards solving this problem?</p></center>",
      "trial_type": "html-slider-response",
      "trial_index": 9,
      "time_elapsed": 89755,
      "internal_node_id": "0.0-3.0-1.2-1.2",
      "responseType": "finish",
      "participantID": "wqxf77l6dvydyjcg0a1rq7hmlznx30bb",
      "problems_seen": [
        "Lebrun, Lenoir, and Leblanc are, not necessarily in that order, the accountant, warehouseman, and traveling salesman of a firm. The salesman is unmarried. Both Lebrun and Lenoir are married. Lebrun is not the accountant. What job does Lenoir have? Accountant, warehouseman, or salesman?",
        "Solve this anagram: RDUNEF"
      ]
    },
    {
      "rt": 10607,
      "responses": "{\"Q0\":3,\"Q1\":1}",
      "trial_type": "survey-likert",
      "trial_index": 10,
      "time_elapsed": 100365,
      "internal_node_id": "0.0-3.0-2.0-0.0",
      "responseType": "finish",
      "participantID": "wqxf77l6dvydyjcg0a1rq7hmlznx30bb",
      "problems_seen": [
        "Lebrun, Lenoir, and Leblanc are, not necessarily in that order, the accountant, warehouseman, and traveling salesman of a firm. The salesman is unmarried. Both Lebrun and Lenoir are married. Lebrun is not the accountant. What job does Lenoir have? Accountant, warehouseman, or salesman?",
        "Solve this anagram: RDUNEF"
      ]
    },
    {
      "rt": 1465,
      "stimulus": "<blockquote>\n  <p>Now a problem will be shown to you. <br><br> Press 'v' to view the problem.</p>\n</blockquote>",
      "key_press": 86,
      "trial_type": "html-keyboard-response",
      "trial_index": 11,
      "time_elapsed": 101834,
      "internal_node_id": "0.0-3.1-0.1",
      "responseType": "finish",
      "participantID": "wqxf77l6dvydyjcg0a1rq7hmlznx30bb",
      "problems_seen": [
        "Lebrun, Lenoir, and Leblanc are, not necessarily in that order, the accountant, warehouseman, and traveling salesman of a firm. The salesman is unmarried. Both Lebrun and Lenoir are married. Lebrun is not the accountant. What job does Lenoir have? Accountant, warehouseman, or salesman?",
        "Solve this anagram: RDUNEF"
      ]
    },
    {
      "rt": 10001,
      "responses": "{\"Q0\":\"\"}",
      "trial_type": "survey-text",
      "trial_index": 12,
      "time_elapsed": 111837,
      "internal_node_id": "0.0-3.1-1.3-0.3",
      "responseType": "finish",
      "participantID": "wqxf77l6dvydyjcg0a1rq7hmlznx30bb",
      "problems_seen": [
        "Lebrun, Lenoir, and Leblanc are, not necessarily in that order, the accountant, warehouseman, and traveling salesman of a firm. The salesman is unmarried. Both Lebrun and Lenoir are married. Lebrun is not the accountant. What job does Lenoir have? Accountant, warehouseman, or salesman?",
        "Solve this anagram: RDUNEF"
      ]
    },
    {
      "rt": 2644.5,
      "response": "77",
      "stimulus": "<center><p>How close are you towards solving this problem?</p></center>",
      "trial_type": "html-slider-response",
      "trial_index": 13,
      "time_elapsed": 114485,
      "internal_node_id": "0.0-3.1-1.3-1.3",
      "responseType": "finish",
      "participantID": "wqxf77l6dvydyjcg0a1rq7hmlznx30bb",
      "problems_seen": [
        "Lebrun, Lenoir, and Leblanc are, not necessarily in that order, the accountant, warehouseman, and traveling salesman of a firm. The salesman is unmarried. Both Lebrun and Lenoir are married. Lebrun is not the accountant. What job does Lenoir have? Accountant, warehouseman, or salesman?",
        "Solve this anagram: RDUNEF"
      ]
    },
    {
      "rt": 3109,
      "responses": "{\"Q0\":\"funder\"}",
      "trial_type": "survey-text",
      "trial_index": 14,
      "time_elapsed": 117596,
      "internal_node_id": "0.0-3.1-1.4-0.4",
      "responseType": "finish",
      "participantID": "wqxf77l6dvydyjcg0a1rq7hmlznx30bb",
      "problems_seen": [
        "Lebrun, Lenoir, and Leblanc are, not necessarily in that order, the accountant, warehouseman, and traveling salesman of a firm. The salesman is unmarried. Both Lebrun and Lenoir are married. Lebrun is not the accountant. What job does Lenoir have? Accountant, warehouseman, or salesman?",
        "Solve this anagram: RDUNEF"
      ]
    },
    {
      "rt": 2177.300000011921,
      "response": "100",
      "stimulus": "<center><p>How close are you towards solving this problem?</p></center>",
      "trial_type": "html-slider-response",
      "trial_index": 15,
      "time_elapsed": 119775,
      "internal_node_id": "0.0-3.1-1.4-1.4",
      "responseType": "finish",
      "participantID": "wqxf77l6dvydyjcg0a1rq7hmlznx30bb",
      "problems_seen": [
        "Lebrun, Lenoir, and Leblanc are, not necessarily in that order, the accountant, warehouseman, and traveling salesman of a firm. The salesman is unmarried. Both Lebrun and Lenoir are married. Lebrun is not the accountant. What job does Lenoir have? Accountant, warehouseman, or salesman?",
        "Solve this anagram: RDUNEF"
      ]
    },
    {
      "rt": 5549,
      "responses": "{\"Q0\":1,\"Q1\":5}",
      "trial_type": "survey-likert",
      "trial_index": 16,
      "time_elapsed": 125326,
      "internal_node_id": "0.0-3.1-2.1-0.1",
      "responseType": "finish",
      "participantID": "wqxf77l6dvydyjcg0a1rq7hmlznx30bb",
      "problems_seen": [
        "Lebrun, Lenoir, and Leblanc are, not necessarily in that order, the accountant, warehouseman, and traveling salesman of a firm. The salesman is unmarried. Both Lebrun and Lenoir are married. Lebrun is not the accountant. What job does Lenoir have? Accountant, warehouseman, or salesman?",
        "Solve this anagram: RDUNEF"
      ]
    }
  ],
  "__v": 0
},{
  "_id": {
    "$oid": "621d5053389ea00004acd769"
  },
  "data": {
    "responseType": "start",
    "participantID": "mapqkjt1rzu4zf0t6eqmo7kj27w4esxe",
    "problems_seen": [
      "Lebrun, Lenoir, and Leblanc are, not necessarily in that order, the accountant, warehouseman, and traveling salesman of a firm. The salesman is unmarried. Both Lebrun and Lenoir are married. Lebrun is not the accountant. What job does Lenoir have? Accountant, warehouseman, or salesman?",
      "Solve this anagram: AYKAWLJ"
    ]
  },
  "__v": 0
},{
  "_id": {
    "$oid": "621d508a389ea00004acd76a"
  },
  "data": {
    "responseType": "start",
    "participantID": "n71swu8gedzkgvn91hpwbbcq59smpbo0",
    "problems_seen": [
      "Solve this anagram: MATCILE",
      "Ben spent $42 for shoes. This was $14 less than what he spent for a shirt and twice more expensive than the tie. The tie was $20 cheaper than the jeans. How much was the jeans?"
    ]
  },
  "__v": 0
},{
  "_id": {
    "$oid": "621d50d3389ea00004acd76b"
  },
  "data": {
    "responseType": "start",
    "participantID": "1nbsys31wg5j4wt68q75wx71jm7uh7jp",
    "problems_seen": [
      "Erin had 24 marbles and Evan had 3 marbles. Erin gave some of her marbles to Evan. Now Erin has exactly double the number of marbles that Evan has. How many marbles did Erin give to Evan?",
      "Solve this anagram: RDUNEF"
    ]
  },
  "__v": 0
},{
  "_id": {
    "$oid": "621d50e0389ea00004acd76c"
  },
  "data": {
    "responseType": "start",
    "participantID": "46wvqy67uogxngyufkl5v10hofg00aqx",
    "problems_seen": [
      "Solve this anagram: RDUNEF",
      "Erin had 24 marbles and Evan had 3 marbles. Erin gave some of her marbles to Evan. Now Erin has exactly double the number of marbles that Evan has. How many marbles did Erin give to Evan?"
    ]
  },
  "__v": 0
},{
  "_id": {
    "$oid": "621d510c389ea00004acd76d"
  },
  "data": {
    "responseType": "start",
    "participantID": "juer0afqobb7vna79259b5lqozh0bsmb",
    "problems_seen": [
      "Solve this anagram: EURADBL",
      "Ben spent $42 for shoes. This was $14 less than what he spent for a shirt and twice more expensive than the tie. The tie was $20 cheaper than the jeans. How much was the jeans?"
    ]
  },
  "__v": 0
},{
  "_id": {
    "$oid": "621d5130389ea00004acd76e"
  },
  "data": {
    "responseType": "start",
    "participantID": "dehvoqeu6oaf6defgoj6bvr2837nvkjs",
    "problems_seen": [
      "Ben spent $42 for shoes. This was $14 less than what he spent for a shirt and twice more expensive than the tie. The tie was $20 cheaper than the jeans. How much was the jeans?",
      "Solve this anagram: AYKAWLJ"
    ]
  },
  "__v": 0
},{
  "_id": {
    "$oid": "621d513f389ea00004acd76f"
  },
  "data": [
    {
      "rt": 2646,
      "responses": "{\"Q0\":\" I consent to participate\"}",
      "trial_type": "survey-multi-choice",
      "trial_index": 0,
      "time_elapsed": 2666,
      "internal_node_id": "0.0-0.0",
      "responseType": "finish",
      "participantID": "n71swu8gedzkgvn91hpwbbcq59smpbo0",
      "problems_seen": [
        "Solve this anagram: MATCILE",
        "Ben spent $42 for shoes. This was $14 less than what he spent for a shirt and twice more expensive than the tie. The tie was $20 cheaper than the jeans. How much was the jeans?"
      ]
    },
    {
      "trial_type": "call-function",
      "trial_index": 1,
      "time_elapsed": 2670,
      "internal_node_id": "0.0-1.0",
      "responseType": "finish",
      "participantID": "n71swu8gedzkgvn91hpwbbcq59smpbo0",
      "problems_seen": [
        "Solve this anagram: MATCILE",
        "Ben spent $42 for shoes. This was $14 less than what he spent for a shirt and twice more expensive than the tie. The tie was $20 cheaper than the jeans. How much was the jeans?"
      ]
    },
    {
      "view_history": "[{\"page_index\":0,\"viewing_time\":2851},{\"page_index\":1,\"viewing_time\":11227},{\"page_index\":2,\"viewing_time\":7596},{\"page_index\":3,\"viewing_time\":4751}]",
      "rt": 26426,
      "trial_type": "instructions",
      "trial_index": 2,
      "time_elapsed": 29096,
      "internal_node_id": "0.0-2.0",
      "responseType": "finish",
      "participantID": "n71swu8gedzkgvn91hpwbbcq59smpbo0",
      "problems_seen": [
        "Solve this anagram: MATCILE",
        "Ben spent $42 for shoes. This was $14 less than what he spent for a shirt and twice more expensive than the tie. The tie was $20 cheaper than the jeans. How much was the jeans?"
      ]
    },
    {
      "rt": 2285,
      "stimulus": "<blockquote>\n  <p>Now a problem will be shown to you. <br><br> Press 'v' to view the problem.</p>\n</blockquote>",
      "key_press": 86,
      "trial_type": "html-keyboard-response",
      "trial_index": 3,
      "time_elapsed": 31381,
      "internal_node_id": "0.0-3.0-0.0",
      "responseType": "finish",
      "participantID": "n71swu8gedzkgvn91hpwbbcq59smpbo0",
      "problems_seen": [
        "Solve this anagram: MATCILE",
        "Ben spent $42 for shoes. This was $14 less than what he spent for a shirt and twice more expensive than the tie. The tie was $20 cheaper than the jeans. How much was the jeans?"
      ]
    },
    {
      "rt": 10001,
      "responses": "{\"Q0\":\"\"}",
      "trial_type": "survey-text",
      "trial_index": 4,
      "time_elapsed": 41390,
      "internal_node_id": "0.0-3.0-1.0-0.0",
      "responseType": "finish",
      "participantID": "n71swu8gedzkgvn91hpwbbcq59smpbo0",
      "problems_seen": [
        "Solve this anagram: MATCILE",
        "Ben spent $42 for shoes. This was $14 less than what he spent for a shirt and twice more expensive than the tie. The tie was $20 cheaper than the jeans. How much was the jeans?"
      ]
    },
    {
      "rt": 2311.600000143051,
      "response": "16",
      "stimulus": "<center><p>How close are you towards solving this problem?</p></center>",
      "trial_type": "html-slider-response",
      "trial_index": 5,
      "time_elapsed": 43703,
      "internal_node_id": "0.0-3.0-1.0-1.0",
      "responseType": "finish",
      "participantID": "n71swu8gedzkgvn91hpwbbcq59smpbo0",
      "problems_seen": [
        "Solve this anagram: MATCILE",
        "Ben spent $42 for shoes. This was $14 less than what he spent for a shirt and twice more expensive than the tie. The tie was $20 cheaper than the jeans. How much was the jeans?"
      ]
    },
    {
      "rt": 10001,
      "responses": "{\"Q0\":\"\"}",
      "trial_type": "survey-text",
      "trial_index": 6,
      "time_elapsed": 53707,
      "internal_node_id": "0.0-3.0-1.1-0.1",
      "responseType": "finish",
      "participantID": "n71swu8gedzkgvn91hpwbbcq59smpbo0",
      "problems_seen": [
        "Solve this anagram: MATCILE",
        "Ben spent $42 for shoes. This was $14 less than what he spent for a shirt and twice more expensive than the tie. The tie was $20 cheaper than the jeans. How much was the jeans?"
      ]
    },
    {
      "rt": 2084,
      "response": "11",
      "stimulus": "<center><p>How close are you towards solving this problem?</p></center>",
      "trial_type": "html-slider-response",
      "trial_index": 7,
      "time_elapsed": 55791,
      "internal_node_id": "0.0-3.0-1.1-1.1",
      "responseType": "finish",
      "participantID": "n71swu8gedzkgvn91hpwbbcq59smpbo0",
      "problems_seen": [
        "Solve this anagram: MATCILE",
        "Ben spent $42 for shoes. This was $14 less than what he spent for a shirt and twice more expensive than the tie. The tie was $20 cheaper than the jeans. How much was the jeans?"
      ]
    },
    {
      "rt": 10001,
      "responses": "{\"Q0\":\"\"}",
      "trial_type": "survey-text",
      "trial_index": 8,
      "time_elapsed": 65793,
      "internal_node_id": "0.0-3.0-1.2-0.2",
      "responseType": "finish",
      "participantID": "n71swu8gedzkgvn91hpwbbcq59smpbo0",
      "problems_seen": [
        "Solve this anagram: MATCILE",
        "Ben spent $42 for shoes. This was $14 less than what he spent for a shirt and twice more expensive than the tie. The tie was $20 cheaper than the jeans. How much was the jeans?"
      ]
    },
    {
      "rt": 2356.100000143051,
      "response": "13",
      "stimulus": "<center><p>How close are you towards solving this problem?</p></center>",
      "trial_type": "html-slider-response",
      "trial_index": 9,
      "time_elapsed": 68150,
      "internal_node_id": "0.0-3.0-1.2-1.2",
      "responseType": "finish",
      "participantID": "n71swu8gedzkgvn91hpwbbcq59smpbo0",
      "problems_seen": [
        "Solve this anagram: MATCILE",
        "Ben spent $42 for shoes. This was $14 less than what he spent for a shirt and twice more expensive than the tie. The tie was $20 cheaper than the jeans. How much was the jeans?"
      ]
    },
    {
      "rt": 10114,
      "responses": "{\"Q0\":\"\"}",
      "trial_type": "survey-text",
      "trial_index": 10,
      "time_elapsed": 78272,
      "internal_node_id": "0.0-3.0-1.3-0.3",
      "responseType": "finish",
      "participantID": "n71swu8gedzkgvn91hpwbbcq59smpbo0",
      "problems_seen": [
        "Solve this anagram: MATCILE",
        "Ben spent $42 for shoes. This was $14 less than what he spent for a shirt and twice more expensive than the tie. The tie was $20 cheaper than the jeans. How much was the jeans?"
      ]
    },
    {
      "rt": 2225.7999999523163,
      "response": "11",
      "stimulus": "<center><p>How close are you towards solving this problem?</p></center>",
      "trial_type": "html-slider-response",
      "trial_index": 11,
      "time_elapsed": 80498,
      "internal_node_id": "0.0-3.0-1.3-1.3",
      "responseType": "finish",
      "participantID": "n71swu8gedzkgvn91hpwbbcq59smpbo0",
      "problems_seen": [
        "Solve this anagram: MATCILE",
        "Ben spent $42 for shoes. This was $14 less than what he spent for a shirt and twice more expensive than the tie. The tie was $20 cheaper than the jeans. How much was the jeans?"
      ]
    },
    {
      "rt": 10002,
      "responses": "{\"Q0\":\"\"}",
      "trial_type": "survey-text",
      "trial_index": 12,
      "time_elapsed": 90502,
      "internal_node_id": "0.0-3.0-1.4-0.4",
      "responseType": "finish",
      "participantID": "n71swu8gedzkgvn91hpwbbcq59smpbo0",
      "problems_seen": [
        "Solve this anagram: MATCILE",
        "Ben spent $42 for shoes. This was $14 less than what he spent for a shirt and twice more expensive than the tie. The tie was $20 cheaper than the jeans. How much was the jeans?"
      ]
    },
    {
      "rt": 2487.2000000476837,
      "response": "6",
      "stimulus": "<center><p>How close are you towards solving this problem?</p></center>",
      "trial_type": "html-slider-response",
      "trial_index": 13,
      "time_elapsed": 92990,
      "internal_node_id": "0.0-3.0-1.4-1.4",
      "responseType": "finish",
      "participantID": "n71swu8gedzkgvn91hpwbbcq59smpbo0",
      "problems_seen": [
        "Solve this anagram: MATCILE",
        "Ben spent $42 for shoes. This was $14 less than what he spent for a shirt and twice more expensive than the tie. The tie was $20 cheaper than the jeans. How much was the jeans?"
      ]
    },
    {
      "rt": 5188,
      "responses": "{\"Q0\":\"Climate\"}",
      "trial_type": "survey-text",
      "trial_index": 14,
      "time_elapsed": 98185,
      "internal_node_id": "0.0-3.0-1.5-0.5",
      "responseType": "finish",
      "participantID": "n71swu8gedzkgvn91hpwbbcq59smpbo0",
      "problems_seen": [
        "Solve this anagram: MATCILE",
        "Ben spent $42 for shoes. This was $14 less than what he spent for a shirt and twice more expensive than the tie. The tie was $20 cheaper than the jeans. How much was the jeans?"
      ]
    },
    {
      "rt": 3379.100000143051,
      "response": "100",
      "stimulus": "<center><p>How close are you towards solving this problem?</p></center>",
      "trial_type": "html-slider-response",
      "trial_index": 15,
      "time_elapsed": 101565,
      "internal_node_id": "0.0-3.0-1.5-1.5",
      "responseType": "finish",
      "participantID": "n71swu8gedzkgvn91hpwbbcq59smpbo0",
      "problems_seen": [
        "Solve this anagram: MATCILE",
        "Ben spent $42 for shoes. This was $14 less than what he spent for a shirt and twice more expensive than the tie. The tie was $20 cheaper than the jeans. How much was the jeans?"
      ]
    },
    {
      "rt": 12140,
      "responses": "{\"Q0\":3,\"Q1\":6}",
      "trial_type": "survey-likert",
      "trial_index": 16,
      "time_elapsed": 113706,
      "internal_node_id": "0.0-3.0-2.0-0.0",
      "responseType": "finish",
      "participantID": "n71swu8gedzkgvn91hpwbbcq59smpbo0",
      "problems_seen": [
        "Solve this anagram: MATCILE",
        "Ben spent $42 for shoes. This was $14 less than what he spent for a shirt and twice more expensive than the tie. The tie was $20 cheaper than the jeans. How much was the jeans?"
      ]
    },
    {
      "rt": 1551,
      "stimulus": "<blockquote>\n  <p>Now a problem will be shown to you. <br><br> Press 'v' to view the problem.</p>\n</blockquote>",
      "key_press": 86,
      "trial_type": "html-keyboard-response",
      "trial_index": 17,
      "time_elapsed": 115260,
      "internal_node_id": "0.0-3.1-0.1",
      "responseType": "finish",
      "participantID": "n71swu8gedzkgvn91hpwbbcq59smpbo0",
      "problems_seen": [
        "Solve this anagram: MATCILE",
        "Ben spent $42 for shoes. This was $14 less than what he spent for a shirt and twice more expensive than the tie. The tie was $20 cheaper than the jeans. How much was the jeans?"
      ]
    },
    {
      "rt": 10009,
      "responses": "{\"Q0\":\"\"}",
      "trial_type": "survey-text",
      "trial_index": 18,
      "time_elapsed": 125277,
      "internal_node_id": "0.0-3.1-1.6-0.6",
      "responseType": "finish",
      "participantID": "n71swu8gedzkgvn91hpwbbcq59smpbo0",
      "problems_seen": [
        "Solve this anagram: MATCILE",
        "Ben spent $42 for shoes. This was $14 less than what he spent for a shirt and twice more expensive than the tie. The tie was $20 cheaper than the jeans. How much was the jeans?"
      ]
    },
    {
      "rt": 2196.899999856949,
      "response": "0",
      "stimulus": "<center><p>How close are you towards solving this problem?</p></center>",
      "trial_type": "html-slider-response",
      "trial_index": 19,
      "time_elapsed": 127474,
      "internal_node_id": "0.0-3.1-1.6-1.6",
      "responseType": "finish",
      "participantID": "n71swu8gedzkgvn91hpwbbcq59smpbo0",
      "problems_seen": [
        "Solve this anagram: MATCILE",
        "Ben spent $42 for shoes. This was $14 less than what he spent for a shirt and twice more expensive than the tie. The tie was $20 cheaper than the jeans. How much was the jeans?"
      ]
    },
    {
      "rt": 10010,
      "responses": "{\"Q0\":\"\"}",
      "trial_type": "survey-text",
      "trial_index": 20,
      "time_elapsed": 137491,
      "internal_node_id": "0.0-3.1-1.7-0.7",
      "responseType": "finish",
      "participantID": "n71swu8gedzkgvn91hpwbbcq59smpbo0",
      "problems_seen": [
        "Solve this anagram: MATCILE",
        "Ben spent $42 for shoes. This was $14 less than what he spent for a shirt and twice more expensive than the tie. The tie was $20 cheaper than the jeans. How much was the jeans?"
      ]
    },
    {
      "rt": 3310.5,
      "response": "32",
      "stimulus": "<center><p>How close are you towards solving this problem?</p></center>",
      "trial_type": "html-slider-response",
      "trial_index": 21,
      "time_elapsed": 140802,
      "internal_node_id": "0.0-3.1-1.7-1.7",
      "responseType": "finish",
      "participantID": "n71swu8gedzkgvn91hpwbbcq59smpbo0",
      "problems_seen": [
        "Solve this anagram: MATCILE",
        "Ben spent $42 for shoes. This was $14 less than what he spent for a shirt and twice more expensive than the tie. The tie was $20 cheaper than the jeans. How much was the jeans?"
      ]
    },
    {
      "rt": 10006,
      "responses": "{\"Q0\":\"\"}",
      "trial_type": "survey-text",
      "trial_index": 22,
      "time_elapsed": 150809,
      "internal_node_id": "0.0-3.1-1.8-0.8",
      "responseType": "finish",
      "participantID": "n71swu8gedzkgvn91hpwbbcq59smpbo0",
      "problems_seen": [
        "Solve this anagram: MATCILE",
        "Ben spent $42 for shoes. This was $14 less than what he spent for a shirt and twice more expensive than the tie. The tie was $20 cheaper than the jeans. How much was the jeans?"
      ]
    },
    {
      "rt": 2167.7000000476837,
      "response": "20",
      "stimulus": "<center><p>How close are you towards solving this problem?</p></center>",
      "trial_type": "html-slider-response",
      "trial_index": 23,
      "time_elapsed": 152977,
      "internal_node_id": "0.0-3.1-1.8-1.8",
      "responseType": "finish",
      "participantID": "n71swu8gedzkgvn91hpwbbcq59smpbo0",
      "problems_seen": [
        "Solve this anagram: MATCILE",
        "Ben spent $42 for shoes. This was $14 less than what he spent for a shirt and twice more expensive than the tie. The tie was $20 cheaper than the jeans. How much was the jeans?"
      ]
    },
    {
      "rt": 10010,
      "responses": "{\"Q0\":\"\"}",
      "trial_type": "survey-text",
      "trial_index": 24,
      "time_elapsed": 162988,
      "internal_node_id": "0.0-3.1-1.9-0.9",
      "responseType": "finish",
      "participantID": "n71swu8gedzkgvn91hpwbbcq59smpbo0",
      "problems_seen": [
        "Solve this anagram: MATCILE",
        "Ben spent $42 for shoes. This was $14 less than what he spent for a shirt and twice more expensive than the tie. The tie was $20 cheaper than the jeans. How much was the jeans?"
      ]
    },
    {
      "rt": 4004.4000000953674,
      "response": "59",
      "stimulus": "<center><p>How close are you towards solving this problem?</p></center>",
      "trial_type": "html-slider-response",
      "trial_index": 25,
      "time_elapsed": 166993,
      "internal_node_id": "0.0-3.1-1.9-1.9",
      "responseType": "finish",
      "participantID": "n71swu8gedzkgvn91hpwbbcq59smpbo0",
      "problems_seen": [
        "Solve this anagram: MATCILE",
        "Ben spent $42 for shoes. This was $14 less than what he spent for a shirt and twice more expensive than the tie. The tie was $20 cheaper than the jeans. How much was the jeans?"
      ]
    },
    {
      "rt": 7452,
      "responses": "{\"Q0\":\"41\"}",
      "trial_type": "survey-text",
      "trial_index": 26,
      "time_elapsed": 174452,
      "internal_node_id": "0.0-3.1-1.10-0.10",
      "responseType": "finish",
      "participantID": "n71swu8gedzkgvn91hpwbbcq59smpbo0",
      "problems_seen": [
        "Solve this anagram: MATCILE",
        "Ben spent $42 for shoes. This was $14 less than what he spent for a shirt and twice more expensive than the tie. The tie was $20 cheaper than the jeans. How much was the jeans?"
      ]
    },
    {
      "rt": 2948.2000000476837,
      "response": "100",
      "stimulus": "<center><p>How close are you towards solving this problem?</p></center>",
      "trial_type": "html-slider-response",
      "trial_index": 27,
      "time_elapsed": 177401,
      "internal_node_id": "0.0-3.1-1.10-1.10",
      "responseType": "finish",
      "participantID": "n71swu8gedzkgvn91hpwbbcq59smpbo0",
      "problems_seen": [
        "Solve this anagram: MATCILE",
        "Ben spent $42 for shoes. This was $14 less than what he spent for a shirt and twice more expensive than the tie. The tie was $20 cheaper than the jeans. How much was the jeans?"
      ]
    },
    {
      "rt": 5852,
      "responses": "{\"Q0\":2,\"Q1\":1}",
      "trial_type": "survey-likert",
      "trial_index": 28,
      "time_elapsed": 183254,
      "internal_node_id": "0.0-3.1-2.1-0.1",
      "responseType": "finish",
      "participantID": "n71swu8gedzkgvn91hpwbbcq59smpbo0",
      "problems_seen": [
        "Solve this anagram: MATCILE",
        "Ben spent $42 for shoes. This was $14 less than what he spent for a shirt and twice more expensive than the tie. The tie was $20 cheaper than the jeans. How much was the jeans?"
      ]
    }
  ],
  "__v": 0
},{
  "_id": {
    "$oid": "621d5144389ea00004acd770"
  },
  "data": {
    "responseType": "start",
    "participantID": "kdjkuf6j6nl4pk9k3kklnzy58xhuyql9",
    "problems_seen": [
      "Solve this anagram: AYKAWLJ",
      "Ben spent $42 for shoes. This was $14 less than what he spent for a shirt and twice more expensive than the tie. The tie was $20 cheaper than the jeans. How much was the jeans?"
    ]
  },
  "__v": 0
},{
  "_id": {
    "$oid": "621d5163389ea00004acd771"
  },
  "data": [
    {
      "rt": 8037,
      "responses": "{\"Q0\":\" I consent to participate\"}",
      "trial_type": "survey-multi-choice",
      "trial_index": 0,
      "time_elapsed": 8062,
      "internal_node_id": "0.0-0.0",
      "responseType": "finish",
      "participantID": "mapqkjt1rzu4zf0t6eqmo7kj27w4esxe",
      "problems_seen": [
        "Lebrun, Lenoir, and Leblanc are, not necessarily in that order, the accountant, warehouseman, and traveling salesman of a firm. The salesman is unmarried. Both Lebrun and Lenoir are married. Lebrun is not the accountant. What job does Lenoir have? Accountant, warehouseman, or salesman?",
        "Solve this anagram: AYKAWLJ"
      ]
    },
    {
      "trial_type": "call-function",
      "trial_index": 1,
      "time_elapsed": 8069,
      "internal_node_id": "0.0-1.0",
      "responseType": "finish",
      "participantID": "mapqkjt1rzu4zf0t6eqmo7kj27w4esxe",
      "problems_seen": [
        "Lebrun, Lenoir, and Leblanc are, not necessarily in that order, the accountant, warehouseman, and traveling salesman of a firm. The salesman is unmarried. Both Lebrun and Lenoir are married. Lebrun is not the accountant. What job does Lenoir have? Accountant, warehouseman, or salesman?",
        "Solve this anagram: AYKAWLJ"
      ]
    },
    {
      "view_history": "[{\"page_index\":0,\"viewing_time\":3018},{\"page_index\":1,\"viewing_time\":14330},{\"page_index\":2,\"viewing_time\":54721},{\"page_index\":3,\"viewing_time\":5242}]",
      "rt": 77312,
      "trial_type": "instructions",
      "trial_index": 2,
      "time_elapsed": 85382,
      "internal_node_id": "0.0-2.0",
      "responseType": "finish",
      "participantID": "mapqkjt1rzu4zf0t6eqmo7kj27w4esxe",
      "problems_seen": [
        "Lebrun, Lenoir, and Leblanc are, not necessarily in that order, the accountant, warehouseman, and traveling salesman of a firm. The salesman is unmarried. Both Lebrun and Lenoir are married. Lebrun is not the accountant. What job does Lenoir have? Accountant, warehouseman, or salesman?",
        "Solve this anagram: AYKAWLJ"
      ]
    },
    {
      "rt": 1761,
      "stimulus": "<blockquote>\n  <p>Now a problem will be shown to you. <br><br> Press 'v' to view the problem.</p>\n</blockquote>",
      "key_press": 86,
      "trial_type": "html-keyboard-response",
      "trial_index": 3,
      "time_elapsed": 87144,
      "internal_node_id": "0.0-3.0-0.0",
      "responseType": "finish",
      "participantID": "mapqkjt1rzu4zf0t6eqmo7kj27w4esxe",
      "problems_seen": [
        "Lebrun, Lenoir, and Leblanc are, not necessarily in that order, the accountant, warehouseman, and traveling salesman of a firm. The salesman is unmarried. Both Lebrun and Lenoir are married. Lebrun is not the accountant. What job does Lenoir have? Accountant, warehouseman, or salesman?",
        "Solve this anagram: AYKAWLJ"
      ]
    },
    {
      "rt": 10002,
      "responses": "{\"Q0\":\"\"}",
      "trial_type": "survey-text",
      "trial_index": 4,
      "time_elapsed": 97159,
      "internal_node_id": "0.0-3.0-1.0-0.0",
      "responseType": "finish",
      "participantID": "mapqkjt1rzu4zf0t6eqmo7kj27w4esxe",
      "problems_seen": [
        "Lebrun, Lenoir, and Leblanc are, not necessarily in that order, the accountant, warehouseman, and traveling salesman of a firm. The salesman is unmarried. Both Lebrun and Lenoir are married. Lebrun is not the accountant. What job does Lenoir have? Accountant, warehouseman, or salesman?",
        "Solve this anagram: AYKAWLJ"
      ]
    },
    {
      "rt": 8377.899999976158,
      "response": "49",
      "stimulus": "<center><p>How close are you towards solving this problem?</p></center>",
      "trial_type": "html-slider-response",
      "trial_index": 5,
      "time_elapsed": 105543,
      "internal_node_id": "0.0-3.0-1.0-1.0",
      "responseType": "finish",
      "participantID": "mapqkjt1rzu4zf0t6eqmo7kj27w4esxe",
      "problems_seen": [
        "Lebrun, Lenoir, and Leblanc are, not necessarily in that order, the accountant, warehouseman, and traveling salesman of a firm. The salesman is unmarried. Both Lebrun and Lenoir are married. Lebrun is not the accountant. What job does Lenoir have? Accountant, warehouseman, or salesman?",
        "Solve this anagram: AYKAWLJ"
      ]
    },
    {
      "rt": 10001,
      "responses": "{\"Q0\":\"\"}",
      "trial_type": "survey-text",
      "trial_index": 6,
      "time_elapsed": 115548,
      "internal_node_id": "0.0-3.0-1.1-0.1",
      "responseType": "finish",
      "participantID": "mapqkjt1rzu4zf0t6eqmo7kj27w4esxe",
      "problems_seen": [
        "Lebrun, Lenoir, and Leblanc are, not necessarily in that order, the accountant, warehouseman, and traveling salesman of a firm. The salesman is unmarried. Both Lebrun and Lenoir are married. Lebrun is not the accountant. What job does Lenoir have? Accountant, warehouseman, or salesman?",
        "Solve this anagram: AYKAWLJ"
      ]
    },
    {
      "rt": 6597.600000023842,
      "response": "31",
      "stimulus": "<center><p>How close are you towards solving this problem?</p></center>",
      "trial_type": "html-slider-response",
      "trial_index": 7,
      "time_elapsed": 122147,
      "internal_node_id": "0.0-3.0-1.1-1.1",
      "responseType": "finish",
      "participantID": "mapqkjt1rzu4zf0t6eqmo7kj27w4esxe",
      "problems_seen": [
        "Lebrun, Lenoir, and Leblanc are, not necessarily in that order, the accountant, warehouseman, and traveling salesman of a firm. The salesman is unmarried. Both Lebrun and Lenoir are married. Lebrun is not the accountant. What job does Lenoir have? Accountant, warehouseman, or salesman?",
        "Solve this anagram: AYKAWLJ"
      ]
    },
    {
      "rt": 10002,
      "responses": "{\"Q0\":\"\"}",
      "trial_type": "survey-text",
      "trial_index": 8,
      "time_elapsed": 132151,
      "internal_node_id": "0.0-3.0-1.2-0.2",
      "responseType": "finish",
      "participantID": "mapqkjt1rzu4zf0t6eqmo7kj27w4esxe",
      "problems_seen": [
        "Lebrun, Lenoir, and Leblanc are, not necessarily in that order, the accountant, warehouseman, and traveling salesman of a firm. The salesman is unmarried. Both Lebrun and Lenoir are married. Lebrun is not the accountant. What job does Lenoir have? Accountant, warehouseman, or salesman?",
        "Solve this anagram: AYKAWLJ"
      ]
    },
    {
      "rt": 9429.799999952316,
      "response": "53",
      "stimulus": "<center><p>How close are you towards solving this problem?</p></center>",
      "trial_type": "html-slider-response",
      "trial_index": 9,
      "time_elapsed": 141582,
      "internal_node_id": "0.0-3.0-1.2-1.2",
      "responseType": "finish",
      "participantID": "mapqkjt1rzu4zf0t6eqmo7kj27w4esxe",
      "problems_seen": [
        "Lebrun, Lenoir, and Leblanc are, not necessarily in that order, the accountant, warehouseman, and traveling salesman of a firm. The salesman is unmarried. Both Lebrun and Lenoir are married. Lebrun is not the accountant. What job does Lenoir have? Accountant, warehouseman, or salesman?",
        "Solve this anagram: AYKAWLJ"
      ]
    },
    {
      "rt": 10004,
      "responses": "{\"Q0\":\"\"}",
      "trial_type": "survey-text",
      "trial_index": 10,
      "time_elapsed": 151599,
      "internal_node_id": "0.0-3.0-1.3-0.3",
      "responseType": "finish",
      "participantID": "mapqkjt1rzu4zf0t6eqmo7kj27w4esxe",
      "problems_seen": [
        "Lebrun, Lenoir, and Leblanc are, not necessarily in that order, the accountant, warehouseman, and traveling salesman of a firm. The salesman is unmarried. Both Lebrun and Lenoir are married. Lebrun is not the accountant. What job does Lenoir have? Accountant, warehouseman, or salesman?",
        "Solve this anagram: AYKAWLJ"
      ]
    },
    {
      "rt": 6711.399999976158,
      "response": "77",
      "stimulus": "<center><p>How close are you towards solving this problem?</p></center>",
      "trial_type": "html-slider-response",
      "trial_index": 11,
      "time_elapsed": 158312,
      "internal_node_id": "0.0-3.0-1.3-1.3",
      "responseType": "finish",
      "participantID": "mapqkjt1rzu4zf0t6eqmo7kj27w4esxe",
      "problems_seen": [
        "Lebrun, Lenoir, and Leblanc are, not necessarily in that order, the accountant, warehouseman, and traveling salesman of a firm. The salesman is unmarried. Both Lebrun and Lenoir are married. Lebrun is not the accountant. What job does Lenoir have? Accountant, warehouseman, or salesman?",
        "Solve this anagram: AYKAWLJ"
      ]
    },
    {
      "rt": 10001,
      "responses": "{\"Q0\":\"\"}",
      "trial_type": "survey-text",
      "trial_index": 12,
      "time_elapsed": 168315,
      "internal_node_id": "0.0-3.0-1.4-0.4",
      "responseType": "finish",
      "participantID": "mapqkjt1rzu4zf0t6eqmo7kj27w4esxe",
      "problems_seen": [
        "Lebrun, Lenoir, and Leblanc are, not necessarily in that order, the accountant, warehouseman, and traveling salesman of a firm. The salesman is unmarried. Both Lebrun and Lenoir are married. Lebrun is not the accountant. What job does Lenoir have? Accountant, warehouseman, or salesman?",
        "Solve this anagram: AYKAWLJ"
      ]
    },
    {
      "rt": 15665.699999988079,
      "response": "94",
      "stimulus": "<center><p>How close are you towards solving this problem?</p></center>",
      "trial_type": "html-slider-response",
      "trial_index": 13,
      "time_elapsed": 183983,
      "internal_node_id": "0.0-3.0-1.4-1.4",
      "responseType": "finish",
      "participantID": "mapqkjt1rzu4zf0t6eqmo7kj27w4esxe",
      "problems_seen": [
        "Lebrun, Lenoir, and Leblanc are, not necessarily in that order, the accountant, warehouseman, and traveling salesman of a firm. The salesman is unmarried. Both Lebrun and Lenoir are married. Lebrun is not the accountant. What job does Lenoir have? Accountant, warehouseman, or salesman?",
        "Solve this anagram: AYKAWLJ"
      ]
    },
    {
      "rt": 10003,
      "responses": "{\"Q0\":\"\"}",
      "trial_type": "survey-text",
      "trial_index": 14,
      "time_elapsed": 193988,
      "internal_node_id": "0.0-3.0-1.5-0.5",
      "responseType": "finish",
      "participantID": "mapqkjt1rzu4zf0t6eqmo7kj27w4esxe",
      "problems_seen": [
        "Lebrun, Lenoir, and Leblanc are, not necessarily in that order, the accountant, warehouseman, and traveling salesman of a firm. The salesman is unmarried. Both Lebrun and Lenoir are married. Lebrun is not the accountant. What job does Lenoir have? Accountant, warehouseman, or salesman?",
        "Solve this anagram: AYKAWLJ"
      ]
    },
    {
      "rt": 6202.800000011921,
      "response": "71",
      "stimulus": "<center><p>How close are you towards solving this problem?</p></center>",
      "trial_type": "html-slider-response",
      "trial_index": 15,
      "time_elapsed": 200192,
      "internal_node_id": "0.0-3.0-1.5-1.5",
      "responseType": "finish",
      "participantID": "mapqkjt1rzu4zf0t6eqmo7kj27w4esxe",
      "problems_seen": [
        "Lebrun, Lenoir, and Leblanc are, not necessarily in that order, the accountant, warehouseman, and traveling salesman of a firm. The salesman is unmarried. Both Lebrun and Lenoir are married. Lebrun is not the accountant. What job does Lenoir have? Accountant, warehouseman, or salesman?",
        "Solve this anagram: AYKAWLJ"
      ]
    },
    {
      "rt": 10005,
      "responses": "{\"Q0\":\"\"}",
      "trial_type": "survey-text",
      "trial_index": 16,
      "time_elapsed": 210200,
      "internal_node_id": "0.0-3.0-1.6-0.6",
      "responseType": "finish",
      "participantID": "mapqkjt1rzu4zf0t6eqmo7kj27w4esxe",
      "problems_seen": [
        "Lebrun, Lenoir, and Leblanc are, not necessarily in that order, the accountant, warehouseman, and traveling salesman of a firm. The salesman is unmarried. Both Lebrun and Lenoir are married. Lebrun is not the accountant. What job does Lenoir have? Accountant, warehouseman, or salesman?",
        "Solve this anagram: AYKAWLJ"
      ]
    },
    {
      "rt": 7313.399999976158,
      "response": "97",
      "stimulus": "<center><p>How close are you towards solving this problem?</p></center>",
      "trial_type": "html-slider-response",
      "trial_index": 17,
      "time_elapsed": 217515,
      "internal_node_id": "0.0-3.0-1.6-1.6",
      "responseType": "finish",
      "participantID": "mapqkjt1rzu4zf0t6eqmo7kj27w4esxe",
      "problems_seen": [
        "Lebrun, Lenoir, and Leblanc are, not necessarily in that order, the accountant, warehouseman, and traveling salesman of a firm. The salesman is unmarried. Both Lebrun and Lenoir are married. Lebrun is not the accountant. What job does Lenoir have? Accountant, warehouseman, or salesman?",
        "Solve this anagram: AYKAWLJ"
      ]
    },
    {
      "rt": 10001,
      "responses": "{\"Q0\":\"accountant\"}",
      "trial_type": "survey-text",
      "trial_index": 18,
      "time_elapsed": 227520,
      "internal_node_id": "0.0-3.0-1.7-0.7",
      "responseType": "finish",
      "participantID": "mapqkjt1rzu4zf0t6eqmo7kj27w4esxe",
      "problems_seen": [
        "Lebrun, Lenoir, and Leblanc are, not necessarily in that order, the accountant, warehouseman, and traveling salesman of a firm. The salesman is unmarried. Both Lebrun and Lenoir are married. Lebrun is not the accountant. What job does Lenoir have? Accountant, warehouseman, or salesman?",
        "Solve this anagram: AYKAWLJ"
      ]
    },
    {
      "rt": 2386.599999964237,
      "response": "100",
      "stimulus": "<center><p>How close are you towards solving this problem?</p></center>",
      "trial_type": "html-slider-response",
      "trial_index": 19,
      "time_elapsed": 229908,
      "internal_node_id": "0.0-3.0-1.7-1.7",
      "responseType": "finish",
      "participantID": "mapqkjt1rzu4zf0t6eqmo7kj27w4esxe",
      "problems_seen": [
        "Lebrun, Lenoir, and Leblanc are, not necessarily in that order, the accountant, warehouseman, and traveling salesman of a firm. The salesman is unmarried. Both Lebrun and Lenoir are married. Lebrun is not the accountant. What job does Lenoir have? Accountant, warehouseman, or salesman?",
        "Solve this anagram: AYKAWLJ"
      ]
    },
    {
      "rt": 4044,
      "responses": "{\"Q0\":\"accountant\"}",
      "trial_type": "survey-text",
      "trial_index": 20,
      "time_elapsed": 233954,
      "internal_node_id": "0.0-3.0-1.8-0.8",
      "responseType": "finish",
      "participantID": "mapqkjt1rzu4zf0t6eqmo7kj27w4esxe",
      "problems_seen": [
        "Lebrun, Lenoir, and Leblanc are, not necessarily in that order, the accountant, warehouseman, and traveling salesman of a firm. The salesman is unmarried. Both Lebrun and Lenoir are married. Lebrun is not the accountant. What job does Lenoir have? Accountant, warehouseman, or salesman?",
        "Solve this anagram: AYKAWLJ"
      ]
    },
    {
      "rt": 2564.300000011921,
      "response": "100",
      "stimulus": "<center><p>How close are you towards solving this problem?</p></center>",
      "trial_type": "html-slider-response",
      "trial_index": 21,
      "time_elapsed": 236520,
      "internal_node_id": "0.0-3.0-1.8-1.8",
      "responseType": "finish",
      "participantID": "mapqkjt1rzu4zf0t6eqmo7kj27w4esxe",
      "problems_seen": [
        "Lebrun, Lenoir, and Leblanc are, not necessarily in that order, the accountant, warehouseman, and traveling salesman of a firm. The salesman is unmarried. Both Lebrun and Lenoir are married. Lebrun is not the accountant. What job does Lenoir have? Accountant, warehouseman, or salesman?",
        "Solve this anagram: AYKAWLJ"
      ]
    },
    {
      "rt": 10336,
      "responses": "{\"Q0\":4,\"Q1\":1}",
      "trial_type": "survey-likert",
      "trial_index": 22,
      "time_elapsed": 246859,
      "internal_node_id": "0.0-3.0-2.0-0.0",
      "responseType": "finish",
      "participantID": "mapqkjt1rzu4zf0t6eqmo7kj27w4esxe",
      "problems_seen": [
        "Lebrun, Lenoir, and Leblanc are, not necessarily in that order, the accountant, warehouseman, and traveling salesman of a firm. The salesman is unmarried. Both Lebrun and Lenoir are married. Lebrun is not the accountant. What job does Lenoir have? Accountant, warehouseman, or salesman?",
        "Solve this anagram: AYKAWLJ"
      ]
    },
    {
      "rt": 1196,
      "stimulus": "<blockquote>\n  <p>Now a problem will be shown to you. <br><br> Press 'v' to view the problem.</p>\n</blockquote>",
      "key_press": 86,
      "trial_type": "html-keyboard-response",
      "trial_index": 23,
      "time_elapsed": 248060,
      "internal_node_id": "0.0-3.1-0.1",
      "responseType": "finish",
      "participantID": "mapqkjt1rzu4zf0t6eqmo7kj27w4esxe",
      "problems_seen": [
        "Lebrun, Lenoir, and Leblanc are, not necessarily in that order, the accountant, warehouseman, and traveling salesman of a firm. The salesman is unmarried. Both Lebrun and Lenoir are married. Lebrun is not the accountant. What job does Lenoir have? Accountant, warehouseman, or salesman?",
        "Solve this anagram: AYKAWLJ"
      ]
    },
    {
      "rt": 10000,
      "responses": "{\"Q0\":\"\"}",
      "trial_type": "survey-text",
      "trial_index": 24,
      "time_elapsed": 258072,
      "internal_node_id": "0.0-3.1-1.9-0.9",
      "responseType": "finish",
      "participantID": "mapqkjt1rzu4zf0t6eqmo7kj27w4esxe",
      "problems_seen": [
        "Lebrun, Lenoir, and Leblanc are, not necessarily in that order, the accountant, warehouseman, and traveling salesman of a firm. The salesman is unmarried. Both Lebrun and Lenoir are married. Lebrun is not the accountant. What job does Lenoir have? Accountant, warehouseman, or salesman?",
        "Solve this anagram: AYKAWLJ"
      ]
    },
    {
      "rt": 8881.199999988079,
      "response": "93",
      "stimulus": "<center><p>How close are you towards solving this problem?</p></center>",
      "trial_type": "html-slider-response",
      "trial_index": 25,
      "time_elapsed": 266955,
      "internal_node_id": "0.0-3.1-1.9-1.9",
      "responseType": "finish",
      "participantID": "mapqkjt1rzu4zf0t6eqmo7kj27w4esxe",
      "problems_seen": [
        "Lebrun, Lenoir, and Leblanc are, not necessarily in that order, the accountant, warehouseman, and traveling salesman of a firm. The salesman is unmarried. Both Lebrun and Lenoir are married. Lebrun is not the accountant. What job does Lenoir have? Accountant, warehouseman, or salesman?",
        "Solve this anagram: AYKAWLJ"
      ]
    },
    {
      "rt": 5773,
      "responses": "{\"Q0\":\"jaywalk\"}",
      "trial_type": "survey-text",
      "trial_index": 26,
      "time_elapsed": 272730,
      "internal_node_id": "0.0-3.1-1.10-0.10",
      "responseType": "finish",
      "participantID": "mapqkjt1rzu4zf0t6eqmo7kj27w4esxe",
      "problems_seen": [
        "Lebrun, Lenoir, and Leblanc are, not necessarily in that order, the accountant, warehouseman, and traveling salesman of a firm. The salesman is unmarried. Both Lebrun and Lenoir are married. Lebrun is not the accountant. What job does Lenoir have? Accountant, warehouseman, or salesman?",
        "Solve this anagram: AYKAWLJ"
      ]
    },
    {
      "rt": 2387.800000011921,
      "response": "100",
      "stimulus": "<center><p>How close are you towards solving this problem?</p></center>",
      "trial_type": "html-slider-response",
      "trial_index": 27,
      "time_elapsed": 275119,
      "internal_node_id": "0.0-3.1-1.10-1.10",
      "responseType": "finish",
      "participantID": "mapqkjt1rzu4zf0t6eqmo7kj27w4esxe",
      "problems_seen": [
        "Lebrun, Lenoir, and Leblanc are, not necessarily in that order, the accountant, warehouseman, and traveling salesman of a firm. The salesman is unmarried. Both Lebrun and Lenoir are married. Lebrun is not the accountant. What job does Lenoir have? Accountant, warehouseman, or salesman?",
        "Solve this anagram: AYKAWLJ"
      ]
    },
    {
      "rt": 5223,
      "responses": "{\"Q0\":1,\"Q1\":4}",
      "trial_type": "survey-likert",
      "trial_index": 28,
      "time_elapsed": 280343,
      "internal_node_id": "0.0-3.1-2.1-0.1",
      "responseType": "finish",
      "participantID": "mapqkjt1rzu4zf0t6eqmo7kj27w4esxe",
      "problems_seen": [
        "Lebrun, Lenoir, and Leblanc are, not necessarily in that order, the accountant, warehouseman, and traveling salesman of a firm. The salesman is unmarried. Both Lebrun and Lenoir are married. Lebrun is not the accountant. What job does Lenoir have? Accountant, warehouseman, or salesman?",
        "Solve this anagram: AYKAWLJ"
      ]
    }
  ],
  "__v": 0
},{
  "_id": {
    "$oid": "621d517f389ea00004acd772"
  },
  "data": {
    "responseType": "start",
    "participantID": "z2p8l2evak2kak6y4e3jbmf2t3snbdmb",
    "problems_seen": [
      "Andrew is twice the age of Brian, Charles is three times older than Brian, and the sum of their ages is 60 years. How old is Charles?",
      "Solve this anagram: LUBMEJD"
    ]
  },
  "__v": 0
},{
  "_id": {
    "$oid": "621d5189389ea00004acd773"
  },
  "data": {
    "responseType": "start",
    "participantID": "dnr6cj0ecn6nq81qhlf1ajad9f2p0t5d",
    "problems_seen": [
      "Eric is trying to get in shape. He wants to do this by climbing stairs. He starts on the third floor, climbs up five stories, down seven, up six, down three, up four, down four, up five, down three, and then up two again. What floor is he on now?",
      "Solve this anagram: MATCILE"
    ]
  },
  "__v": 0
},{
  "_id": {
    "$oid": "621d518f389ea00004acd774"
  },
  "data": [
    {
      "rt": 3864,
      "responses": "{\"Q0\":\" I consent to participate\"}",
      "trial_type": "survey-multi-choice",
      "trial_index": 0,
      "time_elapsed": 3872,
      "internal_node_id": "0.0-0.0",
      "responseType": "finish",
      "participantID": "46wvqy67uogxngyufkl5v10hofg00aqx",
      "problems_seen": [
        "Solve this anagram: RDUNEF",
        "Erin had 24 marbles and Evan had 3 marbles. Erin gave some of her marbles to Evan. Now Erin has exactly double the number of marbles that Evan has. How many marbles did Erin give to Evan?"
      ]
    },
    {
      "trial_type": "call-function",
      "trial_index": 1,
      "time_elapsed": 3880,
      "internal_node_id": "0.0-1.0",
      "responseType": "finish",
      "participantID": "46wvqy67uogxngyufkl5v10hofg00aqx",
      "problems_seen": [
        "Solve this anagram: RDUNEF",
        "Erin had 24 marbles and Evan had 3 marbles. Erin gave some of her marbles to Evan. Now Erin has exactly double the number of marbles that Evan has. How many marbles did Erin give to Evan?"
      ]
    },
    {
      "view_history": "[{\"page_index\":0,\"viewing_time\":2237},{\"page_index\":1,\"viewing_time\":22006},{\"page_index\":2,\"viewing_time\":17995},{\"page_index\":3,\"viewing_time\":7723}]",
      "rt": 49962,
      "trial_type": "instructions",
      "trial_index": 2,
      "time_elapsed": 53843,
      "internal_node_id": "0.0-2.0",
      "responseType": "finish",
      "participantID": "46wvqy67uogxngyufkl5v10hofg00aqx",
      "problems_seen": [
        "Solve this anagram: RDUNEF",
        "Erin had 24 marbles and Evan had 3 marbles. Erin gave some of her marbles to Evan. Now Erin has exactly double the number of marbles that Evan has. How many marbles did Erin give to Evan?"
      ]
    },
    {
      "rt": 3403,
      "stimulus": "<blockquote>\n  <p>Now a problem will be shown to you. <br><br> Press 'v' to view the problem.</p>\n</blockquote>",
      "key_press": 86,
      "trial_type": "html-keyboard-response",
      "trial_index": 3,
      "time_elapsed": 57249,
      "internal_node_id": "0.0-3.0-0.0",
      "responseType": "finish",
      "participantID": "46wvqy67uogxngyufkl5v10hofg00aqx",
      "problems_seen": [
        "Solve this anagram: RDUNEF",
        "Erin had 24 marbles and Evan had 3 marbles. Erin gave some of her marbles to Evan. Now Erin has exactly double the number of marbles that Evan has. How many marbles did Erin give to Evan?"
      ]
    },
    {
      "rt": 10004,
      "responses": "{\"Q0\":\"\"}",
      "trial_type": "survey-text",
      "trial_index": 4,
      "time_elapsed": 67268,
      "internal_node_id": "0.0-3.0-1.0-0.0",
      "responseType": "finish",
      "participantID": "46wvqy67uogxngyufkl5v10hofg00aqx",
      "problems_seen": [
        "Solve this anagram: RDUNEF",
        "Erin had 24 marbles and Evan had 3 marbles. Erin gave some of her marbles to Evan. Now Erin has exactly double the number of marbles that Evan has. How many marbles did Erin give to Evan?"
      ]
    },
    {
      "rt": 3981.2999999821186,
      "response": "14",
      "stimulus": "<center><p>How close are you towards solving this problem?</p></center>",
      "trial_type": "html-slider-response",
      "trial_index": 5,
      "time_elapsed": 71253,
      "internal_node_id": "0.0-3.0-1.0-1.0",
      "responseType": "finish",
      "participantID": "46wvqy67uogxngyufkl5v10hofg00aqx",
      "problems_seen": [
        "Solve this anagram: RDUNEF",
        "Erin had 24 marbles and Evan had 3 marbles. Erin gave some of her marbles to Evan. Now Erin has exactly double the number of marbles that Evan has. How many marbles did Erin give to Evan?"
      ]
    },
    {
      "rt": 10004,
      "responses": "{\"Q0\":\"\"}",
      "trial_type": "survey-text",
      "trial_index": 6,
      "time_elapsed": 81264,
      "internal_node_id": "0.0-3.0-1.1-0.1",
      "responseType": "finish",
      "participantID": "46wvqy67uogxngyufkl5v10hofg00aqx",
      "problems_seen": [
        "Solve this anagram: RDUNEF",
        "Erin had 24 marbles and Evan had 3 marbles. Erin gave some of her marbles to Evan. Now Erin has exactly double the number of marbles that Evan has. How many marbles did Erin give to Evan?"
      ]
    },
    {
      "rt": 2589.2000000178814,
      "response": "11",
      "stimulus": "<center><p>How close are you towards solving this problem?</p></center>",
      "trial_type": "html-slider-response",
      "trial_index": 7,
      "time_elapsed": 83855,
      "internal_node_id": "0.0-3.0-1.1-1.1",
      "responseType": "finish",
      "participantID": "46wvqy67uogxngyufkl5v10hofg00aqx",
      "problems_seen": [
        "Solve this anagram: RDUNEF",
        "Erin had 24 marbles and Evan had 3 marbles. Erin gave some of her marbles to Evan. Now Erin has exactly double the number of marbles that Evan has. How many marbles did Erin give to Evan?"
      ]
    },
    {
      "rt": 2992,
      "responses": "{\"Q0\":\"NEXT\"}",
      "trial_type": "survey-text",
      "trial_index": 8,
      "time_elapsed": 86851,
      "internal_node_id": "0.0-3.0-1.2-0.2",
      "responseType": "finish",
      "participantID": "46wvqy67uogxngyufkl5v10hofg00aqx",
      "problems_seen": [
        "Solve this anagram: RDUNEF",
        "Erin had 24 marbles and Evan had 3 marbles. Erin gave some of her marbles to Evan. Now Erin has exactly double the number of marbles that Evan has. How many marbles did Erin give to Evan?"
      ]
    },
    {
      "rt": 3818.100000023842,
      "response": "11",
      "stimulus": "<center><p>How close are you towards solving this problem?</p></center>",
      "trial_type": "html-slider-response",
      "trial_index": 9,
      "time_elapsed": 90671,
      "internal_node_id": "0.0-3.0-1.2-1.2",
      "responseType": "finish",
      "participantID": "46wvqy67uogxngyufkl5v10hofg00aqx",
      "problems_seen": [
        "Solve this anagram: RDUNEF",
        "Erin had 24 marbles and Evan had 3 marbles. Erin gave some of her marbles to Evan. Now Erin has exactly double the number of marbles that Evan has. How many marbles did Erin give to Evan?"
      ]
    },
    {
      "rt": 9582,
      "responses": "{\"Q0\":6,\"Q1\":0}",
      "trial_type": "survey-likert",
      "trial_index": 10,
      "time_elapsed": 100256,
      "internal_node_id": "0.0-3.0-2.0-0.0",
      "responseType": "finish",
      "participantID": "46wvqy67uogxngyufkl5v10hofg00aqx",
      "problems_seen": [
        "Solve this anagram: RDUNEF",
        "Erin had 24 marbles and Evan had 3 marbles. Erin gave some of her marbles to Evan. Now Erin has exactly double the number of marbles that Evan has. How many marbles did Erin give to Evan?"
      ]
    },
    {
      "rt": 1781,
      "stimulus": "<blockquote>\n  <p>Now a problem will be shown to you. <br><br> Press 'v' to view the problem.</p>\n</blockquote>",
      "key_press": 86,
      "trial_type": "html-keyboard-response",
      "trial_index": 11,
      "time_elapsed": 102040,
      "internal_node_id": "0.0-3.1-0.1",
      "responseType": "finish",
      "participantID": "46wvqy67uogxngyufkl5v10hofg00aqx",
      "problems_seen": [
        "Solve this anagram: RDUNEF",
        "Erin had 24 marbles and Evan had 3 marbles. Erin gave some of her marbles to Evan. Now Erin has exactly double the number of marbles that Evan has. How many marbles did Erin give to Evan?"
      ]
    },
    {
      "rt": 10004,
      "responses": "{\"Q0\":\"\"}",
      "trial_type": "survey-text",
      "trial_index": 12,
      "time_elapsed": 112047,
      "internal_node_id": "0.0-3.1-1.3-0.3",
      "responseType": "finish",
      "participantID": "46wvqy67uogxngyufkl5v10hofg00aqx",
      "problems_seen": [
        "Solve this anagram: RDUNEF",
        "Erin had 24 marbles and Evan had 3 marbles. Erin gave some of her marbles to Evan. Now Erin has exactly double the number of marbles that Evan has. How many marbles did Erin give to Evan?"
      ]
    },
    {
      "rt": 2376.2999999821186,
      "response": "17",
      "stimulus": "<center><p>How close are you towards solving this problem?</p></center>",
      "trial_type": "html-slider-response",
      "trial_index": 13,
      "time_elapsed": 114426,
      "internal_node_id": "0.0-3.1-1.3-1.3",
      "responseType": "finish",
      "participantID": "46wvqy67uogxngyufkl5v10hofg00aqx",
      "problems_seen": [
        "Solve this anagram: RDUNEF",
        "Erin had 24 marbles and Evan had 3 marbles. Erin gave some of her marbles to Evan. Now Erin has exactly double the number of marbles that Evan has. How many marbles did Erin give to Evan?"
      ]
    },
    {
      "rt": 10000,
      "responses": "{\"Q0\":\"\"}",
      "trial_type": "survey-text",
      "trial_index": 14,
      "time_elapsed": 124430,
      "internal_node_id": "0.0-3.1-1.4-0.4",
      "responseType": "finish",
      "participantID": "46wvqy67uogxngyufkl5v10hofg00aqx",
      "problems_seen": [
        "Solve this anagram: RDUNEF",
        "Erin had 24 marbles and Evan had 3 marbles. Erin gave some of her marbles to Evan. Now Erin has exactly double the number of marbles that Evan has. How many marbles did Erin give to Evan?"
      ]
    },
    {
      "rt": 6126.0999999940395,
      "response": "35",
      "stimulus": "<center><p>How close are you towards solving this problem?</p></center>",
      "trial_type": "html-slider-response",
      "trial_index": 15,
      "time_elapsed": 130558,
      "internal_node_id": "0.0-3.1-1.4-1.4",
      "responseType": "finish",
      "participantID": "46wvqy67uogxngyufkl5v10hofg00aqx",
      "problems_seen": [
        "Solve this anagram: RDUNEF",
        "Erin had 24 marbles and Evan had 3 marbles. Erin gave some of her marbles to Evan. Now Erin has exactly double the number of marbles that Evan has. How many marbles did Erin give to Evan?"
      ]
    },
    {
      "rt": 10005,
      "responses": "{\"Q0\":\"\"}",
      "trial_type": "survey-text",
      "trial_index": 16,
      "time_elapsed": 140567,
      "internal_node_id": "0.0-3.1-1.5-0.5",
      "responseType": "finish",
      "participantID": "46wvqy67uogxngyufkl5v10hofg00aqx",
      "problems_seen": [
        "Solve this anagram: RDUNEF",
        "Erin had 24 marbles and Evan had 3 marbles. Erin gave some of her marbles to Evan. Now Erin has exactly double the number of marbles that Evan has. How many marbles did Erin give to Evan?"
      ]
    },
    {
      "rt": 6059.9000000059605,
      "response": "39",
      "stimulus": "<center><p>How close are you towards solving this problem?</p></center>",
      "trial_type": "html-slider-response",
      "trial_index": 17,
      "time_elapsed": 146629,
      "internal_node_id": "0.0-3.1-1.5-1.5",
      "responseType": "finish",
      "participantID": "46wvqy67uogxngyufkl5v10hofg00aqx",
      "problems_seen": [
        "Solve this anagram: RDUNEF",
        "Erin had 24 marbles and Evan had 3 marbles. Erin gave some of her marbles to Evan. Now Erin has exactly double the number of marbles that Evan has. How many marbles did Erin give to Evan?"
      ]
    },
    {
      "rt": 10001,
      "responses": "{\"Q0\":\"\"}",
      "trial_type": "survey-text",
      "trial_index": 18,
      "time_elapsed": 156645,
      "internal_node_id": "0.0-3.1-1.6-0.6",
      "responseType": "finish",
      "participantID": "46wvqy67uogxngyufkl5v10hofg00aqx",
      "problems_seen": [
        "Solve this anagram: RDUNEF",
        "Erin had 24 marbles and Evan had 3 marbles. Erin gave some of her marbles to Evan. Now Erin has exactly double the number of marbles that Evan has. How many marbles did Erin give to Evan?"
      ]
    },
    {
      "rt": 7505.699999988079,
      "response": "91",
      "stimulus": "<center><p>How close are you towards solving this problem?</p></center>",
      "trial_type": "html-slider-response",
      "trial_index": 19,
      "time_elapsed": 164153,
      "internal_node_id": "0.0-3.1-1.6-1.6",
      "responseType": "finish",
      "participantID": "46wvqy67uogxngyufkl5v10hofg00aqx",
      "problems_seen": [
        "Solve this anagram: RDUNEF",
        "Erin had 24 marbles and Evan had 3 marbles. Erin gave some of her marbles to Evan. Now Erin has exactly double the number of marbles that Evan has. How many marbles did Erin give to Evan?"
      ]
    },
    {
      "rt": 3793,
      "responses": "{\"Q0\":\"6\"}",
      "trial_type": "survey-text",
      "trial_index": 20,
      "time_elapsed": 167950,
      "internal_node_id": "0.0-3.1-1.7-0.7",
      "responseType": "finish",
      "participantID": "46wvqy67uogxngyufkl5v10hofg00aqx",
      "problems_seen": [
        "Solve this anagram: RDUNEF",
        "Erin had 24 marbles and Evan had 3 marbles. Erin gave some of her marbles to Evan. Now Erin has exactly double the number of marbles that Evan has. How many marbles did Erin give to Evan?"
      ]
    },
    {
      "rt": 3466.399999976158,
      "response": "100",
      "stimulus": "<center><p>How close are you towards solving this problem?</p></center>",
      "trial_type": "html-slider-response",
      "trial_index": 21,
      "time_elapsed": 171419,
      "internal_node_id": "0.0-3.1-1.7-1.7",
      "responseType": "finish",
      "participantID": "46wvqy67uogxngyufkl5v10hofg00aqx",
      "problems_seen": [
        "Solve this anagram: RDUNEF",
        "Erin had 24 marbles and Evan had 3 marbles. Erin gave some of her marbles to Evan. Now Erin has exactly double the number of marbles that Evan has. How many marbles did Erin give to Evan?"
      ]
    },
    {
      "rt": 6869,
      "responses": "{\"Q0\":2,\"Q1\":3}",
      "trial_type": "survey-likert",
      "trial_index": 22,
      "time_elapsed": 178291,
      "internal_node_id": "0.0-3.1-2.1-0.1",
      "responseType": "finish",
      "participantID": "46wvqy67uogxngyufkl5v10hofg00aqx",
      "problems_seen": [
        "Solve this anagram: RDUNEF",
        "Erin had 24 marbles and Evan had 3 marbles. Erin gave some of her marbles to Evan. Now Erin has exactly double the number of marbles that Evan has. How many marbles did Erin give to Evan?"
      ]
    }
  ],
  "__v": 0
},{
  "_id": {
    "$oid": "621d5196389ea00004acd775"
  },
  "data": {
    "responseType": "start",
    "participantID": "xjg47ah9g5sd7n11fjggbaxvys6mvqob",
    "problems_seen": [
      "Erin had 24 marbles and Evan had 3 marbles. Erin gave some of her marbles to Evan. Now Erin has exactly double the number of marbles that Evan has. How many marbles did Erin give to Evan?",
      "Solve this anagram: LUBMEJD"
    ]
  },
  "__v": 0
},{
  "_id": {
    "$oid": "621d51bf389ea00004acd776"
  },
  "data": {
    "responseType": "start",
    "participantID": "lanese3fx94djwafu064dxl70g86fqog",
    "problems_seen": [
      "Solve this anagram: EURADBL",
      "Lebrun, Lenoir, and Leblanc are, not necessarily in that order, the accountant, warehouseman, and traveling salesman of a firm. The salesman is unmarried. Both Lebrun and Lenoir are married. Lebrun is not the accountant. What job does Lenoir have? Accountant, warehouseman, or salesman?"
    ]
  },
  "__v": 0
},{
  "_id": {
    "$oid": "621d51c9389ea00004acd777"
  },
  "data": [
    {
      "rt": 3571,
      "responses": "{\"Q0\":\" I consent to participate\"}",
      "trial_type": "survey-multi-choice",
      "trial_index": 0,
      "time_elapsed": 3574,
      "internal_node_id": "0.0-0.0",
      "responseType": "finish",
      "participantID": "juer0afqobb7vna79259b5lqozh0bsmb",
      "problems_seen": [
        "Solve this anagram: EURADBL",
        "Ben spent $42 for shoes. This was $14 less than what he spent for a shirt and twice more expensive than the tie. The tie was $20 cheaper than the jeans. How much was the jeans?"
      ]
    },
    {
      "trial_type": "call-function",
      "trial_index": 1,
      "time_elapsed": 3579,
      "internal_node_id": "0.0-1.0",
      "responseType": "finish",
      "participantID": "juer0afqobb7vna79259b5lqozh0bsmb",
      "problems_seen": [
        "Solve this anagram: EURADBL",
        "Ben spent $42 for shoes. This was $14 less than what he spent for a shirt and twice more expensive than the tie. The tie was $20 cheaper than the jeans. How much was the jeans?"
      ]
    },
    {
      "view_history": "[{\"page_index\":0,\"viewing_time\":3038},{\"page_index\":1,\"viewing_time\":19465},{\"page_index\":2,\"viewing_time\":19852},{\"page_index\":3,\"viewing_time\":5212}]",
      "rt": 47568,
      "trial_type": "instructions",
      "trial_index": 2,
      "time_elapsed": 51147,
      "internal_node_id": "0.0-2.0",
      "responseType": "finish",
      "participantID": "juer0afqobb7vna79259b5lqozh0bsmb",
      "problems_seen": [
        "Solve this anagram: EURADBL",
        "Ben spent $42 for shoes. This was $14 less than what he spent for a shirt and twice more expensive than the tie. The tie was $20 cheaper than the jeans. How much was the jeans?"
      ]
    },
    {
      "rt": 2750,
      "stimulus": "<blockquote>\n  <p>Now a problem will be shown to you. <br><br> Press 'v' to view the problem.</p>\n</blockquote>",
      "key_press": 86,
      "trial_type": "html-keyboard-response",
      "trial_index": 3,
      "time_elapsed": 53897,
      "internal_node_id": "0.0-3.0-0.0",
      "responseType": "finish",
      "participantID": "juer0afqobb7vna79259b5lqozh0bsmb",
      "problems_seen": [
        "Solve this anagram: EURADBL",
        "Ben spent $42 for shoes. This was $14 less than what he spent for a shirt and twice more expensive than the tie. The tie was $20 cheaper than the jeans. How much was the jeans?"
      ]
    },
    {
      "rt": 10001,
      "responses": "{\"Q0\":\"DURABLE\"}",
      "trial_type": "survey-text",
      "trial_index": 4,
      "time_elapsed": 63901,
      "internal_node_id": "0.0-3.0-1.0-0.0",
      "responseType": "finish",
      "participantID": "juer0afqobb7vna79259b5lqozh0bsmb",
      "problems_seen": [
        "Solve this anagram: EURADBL",
        "Ben spent $42 for shoes. This was $14 less than what he spent for a shirt and twice more expensive than the tie. The tie was $20 cheaper than the jeans. How much was the jeans?"
      ]
    },
    {
      "rt": 2918,
      "response": "100",
      "stimulus": "<center><p>How close are you towards solving this problem?</p></center>",
      "trial_type": "html-slider-response",
      "trial_index": 5,
      "time_elapsed": 66821,
      "internal_node_id": "0.0-3.0-1.0-1.0",
      "responseType": "finish",
      "participantID": "juer0afqobb7vna79259b5lqozh0bsmb",
      "problems_seen": [
        "Solve this anagram: EURADBL",
        "Ben spent $42 for shoes. This was $14 less than what he spent for a shirt and twice more expensive than the tie. The tie was $20 cheaper than the jeans. How much was the jeans?"
      ]
    },
    {
      "rt": 3182,
      "responses": "{\"Q0\":\"DURABLE\"}",
      "trial_type": "survey-text",
      "trial_index": 6,
      "time_elapsed": 70004,
      "internal_node_id": "0.0-3.0-1.1-0.1",
      "responseType": "finish",
      "participantID": "juer0afqobb7vna79259b5lqozh0bsmb",
      "problems_seen": [
        "Solve this anagram: EURADBL",
        "Ben spent $42 for shoes. This was $14 less than what he spent for a shirt and twice more expensive than the tie. The tie was $20 cheaper than the jeans. How much was the jeans?"
      ]
    },
    {
      "rt": 2908,
      "response": "100",
      "stimulus": "<center><p>How close are you towards solving this problem?</p></center>",
      "trial_type": "html-slider-response",
      "trial_index": 7,
      "time_elapsed": 72913,
      "internal_node_id": "0.0-3.0-1.1-1.1",
      "responseType": "finish",
      "participantID": "juer0afqobb7vna79259b5lqozh0bsmb",
      "problems_seen": [
        "Solve this anagram: EURADBL",
        "Ben spent $42 for shoes. This was $14 less than what he spent for a shirt and twice more expensive than the tie. The tie was $20 cheaper than the jeans. How much was the jeans?"
      ]
    },
    {
      "rt": 14690,
      "responses": "{\"Q0\":0,\"Q1\":1}",
      "trial_type": "survey-likert",
      "trial_index": 8,
      "time_elapsed": 87604,
      "internal_node_id": "0.0-3.0-2.0-0.0",
      "responseType": "finish",
      "participantID": "juer0afqobb7vna79259b5lqozh0bsmb",
      "problems_seen": [
        "Solve this anagram: EURADBL",
        "Ben spent $42 for shoes. This was $14 less than what he spent for a shirt and twice more expensive than the tie. The tie was $20 cheaper than the jeans. How much was the jeans?"
      ]
    },
    {
      "rt": 1277,
      "stimulus": "<blockquote>\n  <p>Now a problem will be shown to you. <br><br> Press 'v' to view the problem.</p>\n</blockquote>",
      "key_press": 86,
      "trial_type": "html-keyboard-response",
      "trial_index": 9,
      "time_elapsed": 88882,
      "internal_node_id": "0.0-3.1-0.1",
      "responseType": "finish",
      "participantID": "juer0afqobb7vna79259b5lqozh0bsmb",
      "problems_seen": [
        "Solve this anagram: EURADBL",
        "Ben spent $42 for shoes. This was $14 less than what he spent for a shirt and twice more expensive than the tie. The tie was $20 cheaper than the jeans. How much was the jeans?"
      ]
    },
    {
      "rt": 10002,
      "responses": "{\"Q0\":\"\"}",
      "trial_type": "survey-text",
      "trial_index": 10,
      "time_elapsed": 98884,
      "internal_node_id": "0.0-3.1-1.2-0.2",
      "responseType": "finish",
      "participantID": "juer0afqobb7vna79259b5lqozh0bsmb",
      "problems_seen": [
        "Solve this anagram: EURADBL",
        "Ben spent $42 for shoes. This was $14 less than what he spent for a shirt and twice more expensive than the tie. The tie was $20 cheaper than the jeans. How much was the jeans?"
      ]
    },
    {
      "rt": 4847.000000000015,
      "response": "0",
      "stimulus": "<center><p>How close are you towards solving this problem?</p></center>",
      "trial_type": "html-slider-response",
      "trial_index": 11,
      "time_elapsed": 103733,
      "internal_node_id": "0.0-3.1-1.2-1.2",
      "responseType": "finish",
      "participantID": "juer0afqobb7vna79259b5lqozh0bsmb",
      "problems_seen": [
        "Solve this anagram: EURADBL",
        "Ben spent $42 for shoes. This was $14 less than what he spent for a shirt and twice more expensive than the tie. The tie was $20 cheaper than the jeans. How much was the jeans?"
      ]
    },
    {
      "rt": 10001,
      "responses": "{\"Q0\":\"\"}",
      "trial_type": "survey-text",
      "trial_index": 12,
      "time_elapsed": 113736,
      "internal_node_id": "0.0-3.1-1.3-0.3",
      "responseType": "finish",
      "participantID": "juer0afqobb7vna79259b5lqozh0bsmb",
      "problems_seen": [
        "Solve this anagram: EURADBL",
        "Ben spent $42 for shoes. This was $14 less than what he spent for a shirt and twice more expensive than the tie. The tie was $20 cheaper than the jeans. How much was the jeans?"
      ]
    },
    {
      "rt": 2228.0000000000146,
      "response": "0",
      "stimulus": "<center><p>How close are you towards solving this problem?</p></center>",
      "trial_type": "html-slider-response",
      "trial_index": 13,
      "time_elapsed": 115965,
      "internal_node_id": "0.0-3.1-1.3-1.3",
      "responseType": "finish",
      "participantID": "juer0afqobb7vna79259b5lqozh0bsmb",
      "problems_seen": [
        "Solve this anagram: EURADBL",
        "Ben spent $42 for shoes. This was $14 less than what he spent for a shirt and twice more expensive than the tie. The tie was $20 cheaper than the jeans. How much was the jeans?"
      ]
    },
    {
      "rt": 10001,
      "responses": "{\"Q0\":\"\"}",
      "trial_type": "survey-text",
      "trial_index": 14,
      "time_elapsed": 125968,
      "internal_node_id": "0.0-3.1-1.4-0.4",
      "responseType": "finish",
      "participantID": "juer0afqobb7vna79259b5lqozh0bsmb",
      "problems_seen": [
        "Solve this anagram: EURADBL",
        "Ben spent $42 for shoes. This was $14 less than what he spent for a shirt and twice more expensive than the tie. The tie was $20 cheaper than the jeans. How much was the jeans?"
      ]
    },
    {
      "rt": 2842.0000000000146,
      "response": "1",
      "stimulus": "<center><p>How close are you towards solving this problem?</p></center>",
      "trial_type": "html-slider-response",
      "trial_index": 15,
      "time_elapsed": 128811,
      "internal_node_id": "0.0-3.1-1.4-1.4",
      "responseType": "finish",
      "participantID": "juer0afqobb7vna79259b5lqozh0bsmb",
