[{
  "_id": {
    "$oid": "61ef1b1bdd352b0004529f34"
  },
  "data": {
    "responseType": "start",
    "participantID": "qkbqkjxwfncg2m1cvvxlzrcrrjr8tsem",
    "problems_seen": [
      "What day follows the day before yesterday if two days from now will be Sunday?",
      "Solve this anagram: EVANG"
    ]
  },
  "__v": 0
},{
  "_id": {
    "$oid": "61ef1b5cdd352b0004529f35"
  },
  "data": {
    "responseType": "start",
    "participantID": "1q8r76a0nclq4jgx9nrrvvrp6gbah1kb",
    "problems_seen": [
      "A group of soldiers were standing facing west. Their sergeant shouted at them: Right turn! U-turn! Left turn! U-turn! Right turn! U-turn! Left turn! Right turn! In which direction are they now facing?",
      "Solve this anagram: AYKAWLJ"
    ]
  },
  "__v": 0
},{
  "_id": {
    "$oid": "61ef1be7dd352b0004529f36"
  },
  "data": [
    {
      "rt": 10734,
      "responses": "{\"Q0\":\" I consent to participate\"}",
      "trial_type": "survey-multi-choice",
      "trial_index": 0,
      "time_elapsed": 10739,
      "internal_node_id": "0.0-0.0",
      "responseType": "finish",
      "participantID": "qkbqkjxwfncg2m1cvvxlzrcrrjr8tsem",
      "problems_seen": [
        "What day follows the day before yesterday if two days from now will be Sunday?",
        "Solve this anagram: EVANG"
      ]
    },
    {
      "trial_type": "call-function",
      "trial_index": 1,
      "time_elapsed": 10745,
      "internal_node_id": "0.0-1.0",
      "responseType": "finish",
      "participantID": "qkbqkjxwfncg2m1cvvxlzrcrrjr8tsem",
      "problems_seen": [
        "What day follows the day before yesterday if two days from now will be Sunday?",
        "Solve this anagram: EVANG"
      ]
    },
    {
      "view_history": "[{\"page_index\":0,\"viewing_time\":3086},{\"page_index\":1,\"viewing_time\":10559},{\"page_index\":2,\"viewing_time\":6643}]",
      "rt": 20290,
      "trial_type": "instructions",
      "trial_index": 2,
      "time_elapsed": 31035,
      "internal_node_id": "0.0-2.0",
      "responseType": "finish",
      "participantID": "qkbqkjxwfncg2m1cvvxlzrcrrjr8tsem",
      "problems_seen": [
        "What day follows the day before yesterday if two days from now will be Sunday?",
        "Solve this anagram: EVANG"
      ]
    },
    {
      "rt": 21044,
      "responses": "{\"Q0\":\"DONE when the problem is solved and SKIP when I want to move on the next problem\"}",
      "trial_type": "survey-multi-choice",
      "trial_index": 3,
      "time_elapsed": 52084,
      "internal_node_id": "0.0-3.0",
      "responseType": "finish",
      "participantID": "qkbqkjxwfncg2m1cvvxlzrcrrjr8tsem",
      "problems_seen": [
        "What day follows the day before yesterday if two days from now will be Sunday?",
        "Solve this anagram: EVANG"
      ]
    },
    {
      "rt": 2162,
      "stimulus": "<blockquote>\n  <p>Now a problem will be shown to you. <br><br> Press 'v' to view the problem.</p>\n</blockquote>",
      "key_press": 86,
      "trial_type": "html-keyboard-response",
      "trial_index": 4,
      "time_elapsed": 54249,
      "internal_node_id": "0.0-4.0-0.0",
      "responseType": "finish",
      "participantID": "qkbqkjxwfncg2m1cvvxlzrcrrjr8tsem",
      "problems_seen": [
        "What day follows the day before yesterday if two days from now will be Sunday?",
        "Solve this anagram: EVANG"
      ]
    },
    {
      "rt": 7005,
      "responses": "{\"Q0\":\"\"}",
      "trial_type": "survey-text",
      "trial_index": 5,
      "time_elapsed": 61271,
      "internal_node_id": "0.0-4.0-1.0-0.0",
      "responseType": "finish",
      "participantID": "qkbqkjxwfncg2m1cvvxlzrcrrjr8tsem",
      "problems_seen": [
        "What day follows the day before yesterday if two days from now will be Sunday?",
        "Solve this anagram: EVANG"
      ]
    },
    {
      "rt": 3010.100000023842,
      "response": "14",
      "stimulus": "<center><p>How close are you towards solving this problem?</p></center>",
      "trial_type": "html-slider-response",
      "trial_index": 6,
      "time_elapsed": 64285,
      "internal_node_id": "0.0-4.0-1.0-1.0",
      "responseType": "finish",
      "participantID": "qkbqkjxwfncg2m1cvvxlzrcrrjr8tsem",
      "problems_seen": [
        "What day follows the day before yesterday if two days from now will be Sunday?",
        "Solve this anagram: EVANG"
      ]
    },
    {
      "rt": 7006,
      "responses": "{\"Q0\":\"\"}",
      "trial_type": "survey-text",
      "trial_index": 7,
      "time_elapsed": 71296,
      "internal_node_id": "0.0-4.0-1.1-0.1",
      "responseType": "finish",
      "participantID": "qkbqkjxwfncg2m1cvvxlzrcrrjr8tsem",
      "problems_seen": [
        "What day follows the day before yesterday if two days from now will be Sunday?",
        "Solve this anagram: EVANG"
      ]
    },
    {
      "rt": 4049.5,
      "response": "46",
      "stimulus": "<center><p>How close are you towards solving this problem?</p></center>",
      "trial_type": "html-slider-response",
      "trial_index": 8,
      "time_elapsed": 75348,
      "internal_node_id": "0.0-4.0-1.1-1.1",
      "responseType": "finish",
      "participantID": "qkbqkjxwfncg2m1cvvxlzrcrrjr8tsem",
      "problems_seen": [
        "What day follows the day before yesterday if two days from now will be Sunday?",
        "Solve this anagram: EVANG"
      ]
    },
    {
      "rt": 7005,
      "responses": "{\"Q0\":\"\"}",
      "trial_type": "survey-text",
      "trial_index": 9,
      "time_elapsed": 82362,
      "internal_node_id": "0.0-4.0-1.2-0.2",
      "responseType": "finish",
      "participantID": "qkbqkjxwfncg2m1cvvxlzrcrrjr8tsem",
      "problems_seen": [
        "What day follows the day before yesterday if two days from now will be Sunday?",
        "Solve this anagram: EVANG"
      ]
    },
    {
      "rt": 3101,
      "response": "78",
      "stimulus": "<center><p>How close are you towards solving this problem?</p></center>",
      "trial_type": "html-slider-response",
      "trial_index": 10,
      "time_elapsed": 85465,
      "internal_node_id": "0.0-4.0-1.2-1.2",
      "responseType": "finish",
      "participantID": "qkbqkjxwfncg2m1cvvxlzrcrrjr8tsem",
      "problems_seen": [
        "What day follows the day before yesterday if two days from now will be Sunday?",
        "Solve this anagram: EVANG"
      ]
    },
    {
      "rt": 4607,
      "responses": "{\"Q0\":\"DONE\"}",
      "trial_type": "survey-text",
      "trial_index": 11,
      "time_elapsed": 90076,
      "internal_node_id": "0.0-4.0-1.3-0.3",
      "responseType": "finish",
      "participantID": "qkbqkjxwfncg2m1cvvxlzrcrrjr8tsem",
      "problems_seen": [
        "What day follows the day before yesterday if two days from now will be Sunday?",
        "Solve this anagram: EVANG"
      ]
    },
    {
      "rt": 3186.7000000476837,
      "response": "100",
      "stimulus": "<center><p>How close are you towards solving this problem?</p></center>",
      "trial_type": "html-slider-response",
      "trial_index": 12,
      "time_elapsed": 93264,
      "internal_node_id": "0.0-4.0-1.3-1.3",
      "responseType": "finish",
      "participantID": "qkbqkjxwfncg2m1cvvxlzrcrrjr8tsem",
      "problems_seen": [
        "What day follows the day before yesterday if two days from now will be Sunday?",
        "Solve this anagram: EVANG"
      ]
    },
    {
      "rt": 6388,
      "responses": "{\"Q0\":\"Thursday\"}",
      "trial_type": "survey-text",
      "trial_index": 13,
      "time_elapsed": 99655,
      "internal_node_id": "0.0-4.0-2.0",
      "responseType": "finish",
      "participantID": "qkbqkjxwfncg2m1cvvxlzrcrrjr8tsem",
      "problems_seen": [
        "What day follows the day before yesterday if two days from now will be Sunday?",
        "Solve this anagram: EVANG"
      ]
    },
    {
      "rt": 22481,
      "responses": "{\"Q0\":5,\"Q1\":2,\"Q2\":1}",
      "trial_type": "survey-likert",
      "trial_index": 14,
      "time_elapsed": 122139,
      "internal_node_id": "0.0-4.0-3.0-0.0",
      "responseType": "finish",
      "participantID": "qkbqkjxwfncg2m1cvvxlzrcrrjr8tsem",
      "problems_seen": [
        "What day follows the day before yesterday if two days from now will be Sunday?",
        "Solve this anagram: EVANG"
      ]
    },
    {
      "rt": 2030,
      "stimulus": "<blockquote>\n  <p>Now a problem will be shown to you. <br><br> Press 'v' to view the problem.</p>\n</blockquote>",
      "key_press": 86,
      "trial_type": "html-keyboard-response",
      "trial_index": 15,
      "time_elapsed": 124172,
      "internal_node_id": "0.0-4.1-0.1",
      "responseType": "finish",
      "participantID": "qkbqkjxwfncg2m1cvvxlzrcrrjr8tsem",
      "problems_seen": [
        "What day follows the day before yesterday if two days from now will be Sunday?",
        "Solve this anagram: EVANG"
      ]
    },
    {
      "rt": 7004,
      "responses": "{\"Q0\":\"\"}",
      "trial_type": "survey-text",
      "trial_index": 16,
      "time_elapsed": 131191,
      "internal_node_id": "0.0-4.1-1.4-0.4",
      "responseType": "finish",
      "participantID": "qkbqkjxwfncg2m1cvvxlzrcrrjr8tsem",
      "problems_seen": [
        "What day follows the day before yesterday if two days from now will be Sunday?",
        "Solve this anagram: EVANG"
      ]
    },
    {
      "rt": 2273.5,
      "response": "20",
      "stimulus": "<center><p>How close are you towards solving this problem?</p></center>",
      "trial_type": "html-slider-response",
      "trial_index": 17,
      "time_elapsed": 133467,
      "internal_node_id": "0.0-4.1-1.4-1.4",
      "responseType": "finish",
      "participantID": "qkbqkjxwfncg2m1cvvxlzrcrrjr8tsem",
      "problems_seen": [
        "What day follows the day before yesterday if two days from now will be Sunday?",
        "Solve this anagram: EVANG"
      ]
    },
    {
      "rt": 7002,
      "responses": "{\"Q0\":\"\"}",
      "trial_type": "survey-text",
      "trial_index": 18,
      "time_elapsed": 140473,
      "internal_node_id": "0.0-4.1-1.5-0.5",
      "responseType": "finish",
      "participantID": "qkbqkjxwfncg2m1cvvxlzrcrrjr8tsem",
      "problems_seen": [
        "What day follows the day before yesterday if two days from now will be Sunday?",
        "Solve this anagram: EVANG"
      ]
    },
    {
      "rt": 2131.2000000476837,
      "response": "19",
      "stimulus": "<center><p>How close are you towards solving this problem?</p></center>",
      "trial_type": "html-slider-response",
      "trial_index": 19,
      "time_elapsed": 142607,
      "internal_node_id": "0.0-4.1-1.5-1.5",
      "responseType": "finish",
      "participantID": "qkbqkjxwfncg2m1cvvxlzrcrrjr8tsem",
      "problems_seen": [
        "What day follows the day before yesterday if two days from now will be Sunday?",
        "Solve this anagram: EVANG"
      ]
    },
    {
      "rt": 7004,
      "responses": "{\"Q0\":\"\"}",
      "trial_type": "survey-text",
      "trial_index": 20,
      "time_elapsed": 149625,
      "internal_node_id": "0.0-4.1-1.6-0.6",
      "responseType": "finish",
      "participantID": "qkbqkjxwfncg2m1cvvxlzrcrrjr8tsem",
      "problems_seen": [
        "What day follows the day before yesterday if two days from now will be Sunday?",
        "Solve this anagram: EVANG"
      ]
    },
    {
      "rt": 2389.5,
      "response": "17",
      "stimulus": "<center><p>How close are you towards solving this problem?</p></center>",
      "trial_type": "html-slider-response",
      "trial_index": 21,
      "time_elapsed": 152018,
      "internal_node_id": "0.0-4.1-1.6-1.6",
      "responseType": "finish",
      "participantID": "qkbqkjxwfncg2m1cvvxlzrcrrjr8tsem",
      "problems_seen": [
        "What day follows the day before yesterday if two days from now will be Sunday?",
        "Solve this anagram: EVANG"
      ]
    },
    {
      "rt": 7004,
      "responses": "{\"Q0\":\"g\"}",
      "trial_type": "survey-text",
      "trial_index": 22,
      "time_elapsed": 159026,
      "internal_node_id": "0.0-4.1-1.7-0.7",
      "responseType": "finish",
      "participantID": "qkbqkjxwfncg2m1cvvxlzrcrrjr8tsem",
      "problems_seen": [
        "What day follows the day before yesterday if two days from now will be Sunday?",
        "Solve this anagram: EVANG"
      ]
    },
    {
      "rt": 2494.5,
      "response": "15",
      "stimulus": "<center><p>How close are you towards solving this problem?</p></center>",
      "trial_type": "html-slider-response",
      "trial_index": 23,
      "time_elapsed": 161524,
      "internal_node_id": "0.0-4.1-1.7-1.7",
      "responseType": "finish",
      "participantID": "qkbqkjxwfncg2m1cvvxlzrcrrjr8tsem",
      "problems_seen": [
        "What day follows the day before yesterday if two days from now will be Sunday?",
        "Solve this anagram: EVANG"
      ]
    },
    {
      "rt": 7003,
      "responses": "{\"Q0\":\"\"}",
      "trial_type": "survey-text",
      "trial_index": 24,
      "time_elapsed": 168532,
      "internal_node_id": "0.0-4.1-1.8-0.8",
      "responseType": "finish",
      "participantID": "qkbqkjxwfncg2m1cvvxlzrcrrjr8tsem",
      "problems_seen": [
        "What day follows the day before yesterday if two days from now will be Sunday?",
        "Solve this anagram: EVANG"
      ]
    },
    {
      "rt": 2554.3000000715256,
      "response": "17",
      "stimulus": "<center><p>How close are you towards solving this problem?</p></center>",
      "trial_type": "html-slider-response",
      "trial_index": 25,
      "time_elapsed": 171089,
      "internal_node_id": "0.0-4.1-1.8-1.8",
      "responseType": "finish",
      "participantID": "qkbqkjxwfncg2m1cvvxlzrcrrjr8tsem",
      "problems_seen": [
        "What day follows the day before yesterday if two days from now will be Sunday?",
        "Solve this anagram: EVANG"
      ]
    },
    {
      "rt": 7001,
      "responses": "{\"Q0\":\"ega\"}",
      "trial_type": "survey-text",
      "trial_index": 26,
      "time_elapsed": 178093,
      "internal_node_id": "0.0-4.1-1.9-0.9",
      "responseType": "finish",
      "participantID": "qkbqkjxwfncg2m1cvvxlzrcrrjr8tsem",
      "problems_seen": [
        "What day follows the day before yesterday if two days from now will be Sunday?",
        "Solve this anagram: EVANG"
      ]
    },
    {
      "rt": 2678.600000023842,
      "response": "14",
      "stimulus": "<center><p>How close are you towards solving this problem?</p></center>",
      "trial_type": "html-slider-response",
      "trial_index": 27,
      "time_elapsed": 180774,
      "internal_node_id": "0.0-4.1-1.9-1.9",
      "responseType": "finish",
      "participantID": "qkbqkjxwfncg2m1cvvxlzrcrrjr8tsem",
      "problems_seen": [
        "What day follows the day before yesterday if two days from now will be Sunday?",
        "Solve this anagram: EVANG"
      ]
    },
    {
      "rt": 7002,
      "responses": "{\"Q0\":\"SK\"}",
      "trial_type": "survey-text",
      "trial_index": 28,
      "time_elapsed": 187788,
      "internal_node_id": "0.0-4.1-1.10-0.10",
      "responseType": "finish",
      "participantID": "qkbqkjxwfncg2m1cvvxlzrcrrjr8tsem",
      "problems_seen": [
        "What day follows the day before yesterday if two days from now will be Sunday?",
        "Solve this anagram: EVANG"
      ]
    },
    {
      "rt": 3488.100000023842,
      "response": "0",
      "stimulus": "<center><p>How close are you towards solving this problem?</p></center>",
      "trial_type": "html-slider-response",
      "trial_index": 29,
      "time_elapsed": 191279,
      "internal_node_id": "0.0-4.1-1.10-1.10",
      "responseType": "finish",
      "participantID": "qkbqkjxwfncg2m1cvvxlzrcrrjr8tsem",
      "problems_seen": [
        "What day follows the day before yesterday if two days from now will be Sunday?",
        "Solve this anagram: EVANG"
      ]
    },
    {
      "rt": 4970,
      "responses": "{\"Q0\":\"SKIP\"}",
      "trial_type": "survey-text",
      "trial_index": 30,
      "time_elapsed": 196252,
      "internal_node_id": "0.0-4.1-1.11-0.11",
      "responseType": "finish",
      "participantID": "qkbqkjxwfncg2m1cvvxlzrcrrjr8tsem",
      "problems_seen": [
        "What day follows the day before yesterday if two days from now will be Sunday?",
        "Solve this anagram: EVANG"
      ]
    },
    {
      "rt": 3836.2000000476837,
      "response": "0",
      "stimulus": "<center><p>How close are you towards solving this problem?</p></center>",
      "trial_type": "html-slider-response",
      "trial_index": 31,
      "time_elapsed": 200090,
      "internal_node_id": "0.0-4.1-1.11-1.11",
      "responseType": "finish",
      "participantID": "qkbqkjxwfncg2m1cvvxlzrcrrjr8tsem",
      "problems_seen": [
        "What day follows the day before yesterday if two days from now will be Sunday?",
        "Solve this anagram: EVANG"
      ]
    },
    {
      "rt": 2534,
      "responses": "{\"Q0\":\"\"}",
      "trial_type": "survey-text",
      "trial_index": 32,
      "time_elapsed": 202625,
      "internal_node_id": "0.0-4.1-2.1",
      "responseType": "finish",
      "participantID": "qkbqkjxwfncg2m1cvvxlzrcrrjr8tsem",
      "problems_seen": [
        "What day follows the day before yesterday if two days from now will be Sunday?",
        "Solve this anagram: EVANG"
      ]
    },
    {
      "rt": 12121,
      "responses": "{\"Q0\":0,\"Q1\":4,\"Q2\":0}",
      "trial_type": "survey-likert",
      "trial_index": 33,
      "time_elapsed": 214749,
      "internal_node_id": "0.0-4.1-3.1-0.1",
      "responseType": "finish",
      "participantID": "qkbqkjxwfncg2m1cvvxlzrcrrjr8tsem",
      "problems_seen": [
        "What day follows the day before yesterday if two days from now will be Sunday?",
        "Solve this anagram: EVANG"
      ]
    }
  ],
  "__v": 0
},{
  "_id": {
    "$oid": "61ef1c06dd352b0004529f37"
  },
  "data": [
    {
      "rt": 4587,
      "responses": "{\"Q0\":\" I consent to participate\"}",
      "trial_type": "survey-multi-choice",
      "trial_index": 0,
      "time_elapsed": 4601,
      "internal_node_id": "0.0-0.0",
      "responseType": "finish",
      "participantID": "1q8r76a0nclq4jgx9nrrvvrp6gbah1kb",
      "problems_seen": [
        "A group of soldiers were standing facing west. Their sergeant shouted at them: Right turn! U-turn! Left turn! U-turn! Right turn! U-turn! Left turn! Right turn! In which direction are they now facing?",
        "Solve this anagram: AYKAWLJ"
      ]
    },
    {
      "trial_type": "call-function",
      "trial_index": 1,
      "time_elapsed": 4604,
      "internal_node_id": "0.0-1.0",
      "responseType": "finish",
      "participantID": "1q8r76a0nclq4jgx9nrrvvrp6gbah1kb",
      "problems_seen": [
        "A group of soldiers were standing facing west. Their sergeant shouted at them: Right turn! U-turn! Left turn! U-turn! Right turn! U-turn! Left turn! Right turn! In which direction are they now facing?",
        "Solve this anagram: AYKAWLJ"
      ]
    },
    {
      "view_history": "[{\"page_index\":0,\"viewing_time\":1808},{\"page_index\":1,\"viewing_time\":11827},{\"page_index\":2,\"viewing_time\":4222}]",
      "rt": 17858,
      "trial_type": "instructions",
      "trial_index": 2,
      "time_elapsed": 22462,
      "internal_node_id": "0.0-2.0",
      "responseType": "finish",
      "participantID": "1q8r76a0nclq4jgx9nrrvvrp6gbah1kb",
      "problems_seen": [
        "A group of soldiers were standing facing west. Their sergeant shouted at them: Right turn! U-turn! Left turn! U-turn! Right turn! U-turn! Left turn! Right turn! In which direction are they now facing?",
        "Solve this anagram: AYKAWLJ"
      ]
    },
    {
      "rt": 21586,
      "responses": "{\"Q0\":\"DONE when the problem is solved and SKIP when I want to move on the next problem\"}",
      "trial_type": "survey-multi-choice",
      "trial_index": 3,
      "time_elapsed": 44050,
      "internal_node_id": "0.0-3.0",
      "responseType": "finish",
      "participantID": "1q8r76a0nclq4jgx9nrrvvrp6gbah1kb",
      "problems_seen": [
        "A group of soldiers were standing facing west. Their sergeant shouted at them: Right turn! U-turn! Left turn! U-turn! Right turn! U-turn! Left turn! Right turn! In which direction are they now facing?",
        "Solve this anagram: AYKAWLJ"
      ]
    },
    {
      "rt": 2602,
      "stimulus": "<blockquote>\n  <p>Now a problem will be shown to you. <br><br> Press 'v' to view the problem.</p>\n</blockquote>",
      "key_press": 86,
      "trial_type": "html-keyboard-response",
      "trial_index": 4,
      "time_elapsed": 46654,
      "internal_node_id": "0.0-4.0-0.0",
      "responseType": "finish",
      "participantID": "1q8r76a0nclq4jgx9nrrvvrp6gbah1kb",
      "problems_seen": [
        "A group of soldiers were standing facing west. Their sergeant shouted at them: Right turn! U-turn! Left turn! U-turn! Right turn! U-turn! Left turn! Right turn! In which direction are they now facing?",
        "Solve this anagram: AYKAWLJ"
      ]
    },
    {
      "rt": 7001,
      "responses": "{\"Q0\":\"\"}",
      "trial_type": "survey-text",
      "trial_index": 5,
      "time_elapsed": 53662,
      "internal_node_id": "0.0-4.0-1.0-0.0",
      "responseType": "finish",
      "participantID": "1q8r76a0nclq4jgx9nrrvvrp6gbah1kb",
      "problems_seen": [
        "A group of soldiers were standing facing west. Their sergeant shouted at them: Right turn! U-turn! Left turn! U-turn! Right turn! U-turn! Left turn! Right turn! In which direction are they now facing?",
        "Solve this anagram: AYKAWLJ"
      ]
    },
    {
      "rt": 6215.9000000059605,
      "response": "23",
      "stimulus": "<center><p>How close are you towards solving this problem?</p></center>",
      "trial_type": "html-slider-response",
      "trial_index": 6,
      "time_elapsed": 59878,
      "internal_node_id": "0.0-4.0-1.0-1.0",
      "responseType": "finish",
      "participantID": "1q8r76a0nclq4jgx9nrrvvrp6gbah1kb",
      "problems_seen": [
        "A group of soldiers were standing facing west. Their sergeant shouted at them: Right turn! U-turn! Left turn! U-turn! Right turn! U-turn! Left turn! Right turn! In which direction are they now facing?",
        "Solve this anagram: AYKAWLJ"
      ]
    },
    {
      "rt": 7013,
      "responses": "{\"Q0\":\"\"}",
      "trial_type": "survey-text",
      "trial_index": 7,
      "time_elapsed": 66894,
      "internal_node_id": "0.0-4.0-1.1-0.1",
      "responseType": "finish",
      "participantID": "1q8r76a0nclq4jgx9nrrvvrp6gbah1kb",
      "problems_seen": [
        "A group of soldiers were standing facing west. Their sergeant shouted at them: Right turn! U-turn! Left turn! U-turn! Right turn! U-turn! Left turn! Right turn! In which direction are they now facing?",
        "Solve this anagram: AYKAWLJ"
      ]
    },
    {
      "rt": 3555.9000000059605,
      "response": "12",
      "stimulus": "<center><p>How close are you towards solving this problem?</p></center>",
      "trial_type": "html-slider-response",
      "trial_index": 8,
      "time_elapsed": 70450,
      "internal_node_id": "0.0-4.0-1.1-1.1",
      "responseType": "finish",
      "participantID": "1q8r76a0nclq4jgx9nrrvvrp6gbah1kb",
      "problems_seen": [
        "A group of soldiers were standing facing west. Their sergeant shouted at them: Right turn! U-turn! Left turn! U-turn! Right turn! U-turn! Left turn! Right turn! In which direction are they now facing?",
        "Solve this anagram: AYKAWLJ"
      ]
    },
    {
      "rt": 7001,
      "responses": "{\"Q0\":\"\"}",
      "trial_type": "survey-text",
      "trial_index": 9,
      "time_elapsed": 77457,
      "internal_node_id": "0.0-4.0-1.2-0.2",
      "responseType": "finish",
      "participantID": "1q8r76a0nclq4jgx9nrrvvrp6gbah1kb",
      "problems_seen": [
        "A group of soldiers were standing facing west. Their sergeant shouted at them: Right turn! U-turn! Left turn! U-turn! Right turn! U-turn! Left turn! Right turn! In which direction are they now facing?",
        "Solve this anagram: AYKAWLJ"
      ]
    },
    {
      "rt": 6068.20000000298,
      "response": "49",
      "stimulus": "<center><p>How close are you towards solving this problem?</p></center>",
      "trial_type": "html-slider-response",
      "trial_index": 10,
      "time_elapsed": 83526,
      "internal_node_id": "0.0-4.0-1.2-1.2",
      "responseType": "finish",
      "participantID": "1q8r76a0nclq4jgx9nrrvvrp6gbah1kb",
      "problems_seen": [
        "A group of soldiers were standing facing west. Their sergeant shouted at them: Right turn! U-turn! Left turn! U-turn! Right turn! U-turn! Left turn! Right turn! In which direction are they now facing?",
        "Solve this anagram: AYKAWLJ"
      ]
    },
    {
      "rt": 7000,
      "responses": "{\"Q0\":\"\"}",
      "trial_type": "survey-text",
      "trial_index": 11,
      "time_elapsed": 90527,
      "internal_node_id": "0.0-4.0-1.3-0.3",
      "responseType": "finish",
      "participantID": "1q8r76a0nclq4jgx9nrrvvrp6gbah1kb",
      "problems_seen": [
        "A group of soldiers were standing facing west. Their sergeant shouted at them: Right turn! U-turn! Left turn! U-turn! Right turn! U-turn! Left turn! Right turn! In which direction are they now facing?",
        "Solve this anagram: AYKAWLJ"
      ]
    },
    {
      "rt": 2148.300000011921,
      "response": "67",
      "stimulus": "<center><p>How close are you towards solving this problem?</p></center>",
      "trial_type": "html-slider-response",
      "trial_index": 12,
      "time_elapsed": 92676,
      "internal_node_id": "0.0-4.0-1.3-1.3",
      "responseType": "finish",
      "participantID": "1q8r76a0nclq4jgx9nrrvvrp6gbah1kb",
      "problems_seen": [
        "A group of soldiers were standing facing west. Their sergeant shouted at them: Right turn! U-turn! Left turn! U-turn! Right turn! U-turn! Left turn! Right turn! In which direction are they now facing?",
        "Solve this anagram: AYKAWLJ"
      ]
    },
    {
      "rt": 7001,
      "responses": "{\"Q0\":\"\"}",
      "trial_type": "survey-text",
      "trial_index": 13,
      "time_elapsed": 99683,
      "internal_node_id": "0.0-4.0-1.4-0.4",
      "responseType": "finish",
      "participantID": "1q8r76a0nclq4jgx9nrrvvrp6gbah1kb",
      "problems_seen": [
        "A group of soldiers were standing facing west. Their sergeant shouted at them: Right turn! U-turn! Left turn! U-turn! Right turn! U-turn! Left turn! Right turn! In which direction are they now facing?",
        "Solve this anagram: AYKAWLJ"
      ]
    },
    {
      "rt": 2915,
      "response": "100",
      "stimulus": "<center><p>How close are you towards solving this problem?</p></center>",
      "trial_type": "html-slider-response",
      "trial_index": 14,
      "time_elapsed": 102599,
      "internal_node_id": "0.0-4.0-1.4-1.4",
      "responseType": "finish",
      "participantID": "1q8r76a0nclq4jgx9nrrvvrp6gbah1kb",
      "problems_seen": [
        "A group of soldiers were standing facing west. Their sergeant shouted at them: Right turn! U-turn! Left turn! U-turn! Right turn! U-turn! Left turn! Right turn! In which direction are they now facing?",
        "Solve this anagram: AYKAWLJ"
      ]
    },
    {
      "rt": 3072,
      "responses": "{\"Q0\":\"DONE\"}",
      "trial_type": "survey-text",
      "trial_index": 15,
      "time_elapsed": 105672,
      "internal_node_id": "0.0-4.0-1.5-0.5",
      "responseType": "finish",
      "participantID": "1q8r76a0nclq4jgx9nrrvvrp6gbah1kb",
      "problems_seen": [
        "A group of soldiers were standing facing west. Their sergeant shouted at them: Right turn! U-turn! Left turn! U-turn! Right turn! U-turn! Left turn! Right turn! In which direction are they now facing?",
        "Solve this anagram: AYKAWLJ"
      ]
    },
    {
      "rt": 4448.5999999940395,
      "response": "76",
      "stimulus": "<center><p>How close are you towards solving this problem?</p></center>",
      "trial_type": "html-slider-response",
      "trial_index": 16,
      "time_elapsed": 110121,
      "internal_node_id": "0.0-4.0-1.5-1.5",
      "responseType": "finish",
      "participantID": "1q8r76a0nclq4jgx9nrrvvrp6gbah1kb",
      "problems_seen": [
        "A group of soldiers were standing facing west. Their sergeant shouted at them: Right turn! U-turn! Left turn! U-turn! Right turn! U-turn! Left turn! Right turn! In which direction are they now facing?",
        "Solve this anagram: AYKAWLJ"
      ]
    },
    {
      "rt": 8668,
      "responses": "{\"Q0\":\"Right Turn\"}",
      "trial_type": "survey-text",
      "trial_index": 17,
      "time_elapsed": 118790,
      "internal_node_id": "0.0-4.0-2.0",
      "responseType": "finish",
      "participantID": "1q8r76a0nclq4jgx9nrrvvrp6gbah1kb",
      "problems_seen": [
        "A group of soldiers were standing facing west. Their sergeant shouted at them: Right turn! U-turn! Left turn! U-turn! Right turn! U-turn! Left turn! Right turn! In which direction are they now facing?",
        "Solve this anagram: AYKAWLJ"
      ]
    },
    {
      "rt": 17451,
      "responses": "{\"Q0\":6,\"Q1\":1,\"Q2\":4}",
      "trial_type": "survey-likert",
      "trial_index": 18,
      "time_elapsed": 136242,
      "internal_node_id": "0.0-4.0-3.0-0.0",
      "responseType": "finish",
      "participantID": "1q8r76a0nclq4jgx9nrrvvrp6gbah1kb",
      "problems_seen": [
        "A group of soldiers were standing facing west. Their sergeant shouted at them: Right turn! U-turn! Left turn! U-turn! Right turn! U-turn! Left turn! Right turn! In which direction are they now facing?",
        "Solve this anagram: AYKAWLJ"
      ]
    },
    {
      "rt": 1589,
      "stimulus": "<blockquote>\n  <p>Now a problem will be shown to you. <br><br> Press 'v' to view the problem.</p>\n</blockquote>",
      "key_press": 86,
      "trial_type": "html-keyboard-response",
      "trial_index": 19,
      "time_elapsed": 137834,
      "internal_node_id": "0.0-4.1-0.1",
      "responseType": "finish",
      "participantID": "1q8r76a0nclq4jgx9nrrvvrp6gbah1kb",
      "problems_seen": [
        "A group of soldiers were standing facing west. Their sergeant shouted at them: Right turn! U-turn! Left turn! U-turn! Right turn! U-turn! Left turn! Right turn! In which direction are they now facing?",
        "Solve this anagram: AYKAWLJ"
      ]
    },
    {
      "rt": 7001,
      "responses": "{\"Q0\":\"\"}",
      "trial_type": "survey-text",
      "trial_index": 20,
      "time_elapsed": 144841,
      "internal_node_id": "0.0-4.1-1.6-0.6",
      "responseType": "finish",
      "participantID": "1q8r76a0nclq4jgx9nrrvvrp6gbah1kb",
      "problems_seen": [
        "A group of soldiers were standing facing west. Their sergeant shouted at them: Right turn! U-turn! Left turn! U-turn! Right turn! U-turn! Left turn! Right turn! In which direction are they now facing?",
        "Solve this anagram: AYKAWLJ"
      ]
    },
    {
      "rt": 1915.7000000029802,
      "response": "20",
      "stimulus": "<center><p>How close are you towards solving this problem?</p></center>",
      "trial_type": "html-slider-response",
      "trial_index": 21,
      "time_elapsed": 146757,
      "internal_node_id": "0.0-4.1-1.6-1.6",
      "responseType": "finish",
      "participantID": "1q8r76a0nclq4jgx9nrrvvrp6gbah1kb",
      "problems_seen": [
        "A group of soldiers were standing facing west. Their sergeant shouted at them: Right turn! U-turn! Left turn! U-turn! Right turn! U-turn! Left turn! Right turn! In which direction are they now facing?",
        "Solve this anagram: AYKAWLJ"
      ]
    },
    {
      "rt": 7001,
      "responses": "{\"Q0\":\"\"}",
      "trial_type": "survey-text",
      "trial_index": 22,
      "time_elapsed": 153763,
      "internal_node_id": "0.0-4.1-1.7-0.7",
      "responseType": "finish",
      "participantID": "1q8r76a0nclq4jgx9nrrvvrp6gbah1kb",
      "problems_seen": [
        "A group of soldiers were standing facing west. Their sergeant shouted at them: Right turn! U-turn! Left turn! U-turn! Right turn! U-turn! Left turn! Right turn! In which direction are they now facing?",
        "Solve this anagram: AYKAWLJ"
      ]
    },
    {
      "rt": 3200.9000000059605,
      "response": "18",
      "stimulus": "<center><p>How close are you towards solving this problem?</p></center>",
      "trial_type": "html-slider-response",
      "trial_index": 23,
      "time_elapsed": 156964,
      "internal_node_id": "0.0-4.1-1.7-1.7",
      "responseType": "finish",
      "participantID": "1q8r76a0nclq4jgx9nrrvvrp6gbah1kb",
      "problems_seen": [
        "A group of soldiers were standing facing west. Their sergeant shouted at them: Right turn! U-turn! Left turn! U-turn! Right turn! U-turn! Left turn! Right turn! In which direction are they now facing?",
        "Solve this anagram: AYKAWLJ"
      ]
    },
    {
      "rt": 4808,
      "responses": "{\"Q0\":\"SKIP\"}",
      "trial_type": "survey-text",
      "trial_index": 24,
      "time_elapsed": 161778,
      "internal_node_id": "0.0-4.1-1.8-0.8",
      "responseType": "finish",
      "participantID": "1q8r76a0nclq4jgx9nrrvvrp6gbah1kb",
      "problems_seen": [
        "A group of soldiers were standing facing west. Their sergeant shouted at them: Right turn! U-turn! Left turn! U-turn! Right turn! U-turn! Left turn! Right turn! In which direction are they now facing?",
        "Solve this anagram: AYKAWLJ"
      ]
    },
    {
      "rt": 2654.6000000089407,
      "response": "15",
      "stimulus": "<center><p>How close are you towards solving this problem?</p></center>",
      "trial_type": "html-slider-response",
      "trial_index": 25,
      "time_elapsed": 164433,
      "internal_node_id": "0.0-4.1-1.8-1.8",
      "responseType": "finish",
      "participantID": "1q8r76a0nclq4jgx9nrrvvrp6gbah1kb",
      "problems_seen": [
        "A group of soldiers were standing facing west. Their sergeant shouted at them: Right turn! U-turn! Left turn! U-turn! Right turn! U-turn! Left turn! Right turn! In which direction are they now facing?",
        "Solve this anagram: AYKAWLJ"
      ]
    },
    {
      "rt": 2409,
      "responses": "{\"Q0\":\"\"}",
      "trial_type": "survey-text",
      "trial_index": 26,
      "time_elapsed": 166843,
      "internal_node_id": "0.0-4.1-2.1",
      "responseType": "finish",
      "participantID": "1q8r76a0nclq4jgx9nrrvvrp6gbah1kb",
      "problems_seen": [
        "A group of soldiers were standing facing west. Their sergeant shouted at them: Right turn! U-turn! Left turn! U-turn! Right turn! U-turn! Left turn! Right turn! In which direction are they now facing?",
        "Solve this anagram: AYKAWLJ"
      ]
    },
    {
      "rt": 7985,
      "responses": "{\"Q0\":0,\"Q1\":5,\"Q2\":0}",
      "trial_type": "survey-likert",
      "trial_index": 27,
      "time_elapsed": 174828,
      "internal_node_id": "0.0-4.1-3.1-0.1",
      "responseType": "finish",
      "participantID": "1q8r76a0nclq4jgx9nrrvvrp6gbah1kb",
      "problems_seen": [
        "A group of soldiers were standing facing west. Their sergeant shouted at them: Right turn! U-turn! Left turn! U-turn! Right turn! U-turn! Left turn! Right turn! In which direction are they now facing?",
        "Solve this anagram: AYKAWLJ"
      ]
    }
  ],
  "__v": 0
},{
  "_id": {
    "$oid": "61ef1c15dd352b0004529f38"
  },
  "data": {
    "responseType": "start",
    "participantID": "tsa02mu013cch932u5ptquv9uy1jcefx",
    "problems_seen": [
      "Solve this anagram: EVANG",
      "What day follows the day before yesterday if two days from now will be Sunday?"
    ]
  },
  "__v": 0
},{
  "_id": {
    "$oid": "61ef1c2edd352b0004529f39"
  },
  "data": {
    "responseType": "start",
    "participantID": "ec3rq4a4lhtx6eayntq54hdf5onkmgd0",
    "problems_seen": [
      "Solve this anagram: MARNOD",
      "A group of soldiers were standing facing west. Their sergeant shouted at them: Right turn! U-turn! Left turn! U-turn! Right turn! U-turn! Left turn! Right turn! In which direction are they now facing?"
    ]
  },
  "__v": 0
},{
  "_id": {
    "$oid": "61ef1d2add352b0004529f3a"
  },
  "data": {
    "responseType": "start",
    "participantID": "kouhnn7w0va6r1fx9gamqfc69gh7q6t0",
    "problems_seen": [
      "A group of soldiers were standing facing west. Their sergeant shouted at them: Right turn! U-turn! Left turn! U-turn! Right turn! U-turn! Left turn! Right turn! In which direction are they now facing?",
      "Solve this anagram: EVANG"
    ]
  },
  "__v": 0
},{
  "_id": {
    "$oid": "61ef1d35dd352b0004529f3b"
  },
  "data": {
    "responseType": "start",
    "participantID": "uj2f25eu8zp9yquacdgs2vxcwe3d6eeq",
    "problems_seen": [
      "Solve this anagram: AYKAWLJ",
      "Next week I am going to have lunch with my friend, visit the new art gallery, go to the Social Security office, and have my teeth checked at the dentist. My friend cannot meet me on Wednesday; the Social Security office is closed weekends; the dentist has office hours only on Tuesday, Friday, and Saturday; the art gallery is closed Tuesday, Thursday, and weekends. On what single day can I do everything I have planned?"
    ]
  },
  "__v": 0
},{
  "_id": {
    "$oid": "61ef1d60dd352b0004529f3c"
  },
  "data": {
    "responseType": "start",
    "participantID": "kny45yr0mtfygdhvhhwmby89qfppvnyl",
    "problems_seen": [
      "Solve this anagram: EVANG",
      "Next week I am going to have lunch with my friend, visit the new art gallery, go to the Social Security office, and have my teeth checked at the dentist. My friend cannot meet me on Wednesday; the Social Security office is closed weekends; the dentist has office hours only on Tuesday, Friday, and Saturday; the art gallery is closed Tuesday, Thursday, and weekends. On what single day can I do everything I have planned?"
    ]
  },
  "__v": 0
},{
  "_id": {
    "$oid": "61ef1d7edd352b0004529f3d"
  },
  "data": [
    {
      "rt": 5616,
      "responses": "{\"Q0\":\" I consent to participate\"}",
      "trial_type": "survey-multi-choice",
      "trial_index": 0,
      "time_elapsed": 5639,
      "internal_node_id": "0.0-0.0",
      "responseType": "finish",
      "participantID": "uj2f25eu8zp9yquacdgs2vxcwe3d6eeq",
      "problems_seen": [
        "Solve this anagram: AYKAWLJ",
        "Next week I am going to have lunch with my friend, visit the new art gallery, go to the Social Security office, and have my teeth checked at the dentist. My friend cannot meet me on Wednesday; the Social Security office is closed weekends; the dentist has office hours only on Tuesday, Friday, and Saturday; the art gallery is closed Tuesday, Thursday, and weekends. On what single day can I do everything I have planned?"
      ]
    },
    {
      "trial_type": "call-function",
      "trial_index": 1,
      "time_elapsed": 5645,
      "internal_node_id": "0.0-1.0",
      "responseType": "finish",
      "participantID": "uj2f25eu8zp9yquacdgs2vxcwe3d6eeq",
      "problems_seen": [
        "Solve this anagram: AYKAWLJ",
        "Next week I am going to have lunch with my friend, visit the new art gallery, go to the Social Security office, and have my teeth checked at the dentist. My friend cannot meet me on Wednesday; the Social Security office is closed weekends; the dentist has office hours only on Tuesday, Friday, and Saturday; the art gallery is closed Tuesday, Thursday, and weekends. On what single day can I do everything I have planned?"
      ]
    },
    {
      "view_history": "[{\"page_index\":0,\"viewing_time\":1852},{\"page_index\":1,\"viewing_time\":4047},{\"page_index\":2,\"viewing_time\":1315}]",
      "rt": 7217,
      "trial_type": "instructions",
      "trial_index": 2,
      "time_elapsed": 12862,
      "internal_node_id": "0.0-2.0",
      "responseType": "finish",
      "participantID": "uj2f25eu8zp9yquacdgs2vxcwe3d6eeq",
      "problems_seen": [
        "Solve this anagram: AYKAWLJ",
        "Next week I am going to have lunch with my friend, visit the new art gallery, go to the Social Security office, and have my teeth checked at the dentist. My friend cannot meet me on Wednesday; the Social Security office is closed weekends; the dentist has office hours only on Tuesday, Friday, and Saturday; the art gallery is closed Tuesday, Thursday, and weekends. On what single day can I do everything I have planned?"
      ]
    },
    {
      "rt": 5646,
      "responses": "{\"Q0\":\"DONE when the problem is solved and SKIP when I want to move on the next problem\"}",
      "trial_type": "survey-multi-choice",
      "trial_index": 3,
      "time_elapsed": 18513,
      "internal_node_id": "0.0-3.0",
      "responseType": "finish",
      "participantID": "uj2f25eu8zp9yquacdgs2vxcwe3d6eeq",
      "problems_seen": [
        "Solve this anagram: AYKAWLJ",
        "Next week I am going to have lunch with my friend, visit the new art gallery, go to the Social Security office, and have my teeth checked at the dentist. My friend cannot meet me on Wednesday; the Social Security office is closed weekends; the dentist has office hours only on Tuesday, Friday, and Saturday; the art gallery is closed Tuesday, Thursday, and weekends. On what single day can I do everything I have planned?"
      ]
    },
    {
      "rt": 1663,
      "stimulus": "<blockquote>\n  <p>Now a problem will be shown to you. <br><br> Press 'v' to view the problem.</p>\n</blockquote>",
      "key_press": 86,
      "trial_type": "html-keyboard-response",
      "trial_index": 4,
      "time_elapsed": 20178,
      "internal_node_id": "0.0-4.0-0.0",
      "responseType": "finish",
      "participantID": "uj2f25eu8zp9yquacdgs2vxcwe3d6eeq",
      "problems_seen": [
        "Solve this anagram: AYKAWLJ",
        "Next week I am going to have lunch with my friend, visit the new art gallery, go to the Social Security office, and have my teeth checked at the dentist. My friend cannot meet me on Wednesday; the Social Security office is closed weekends; the dentist has office hours only on Tuesday, Friday, and Saturday; the art gallery is closed Tuesday, Thursday, and weekends. On what single day can I do everything I have planned?"
      ]
    },
    {
      "rt": 7005,
      "responses": "{\"Q0\":\"Skip\"}",
      "trial_type": "survey-text",
      "trial_index": 5,
      "time_elapsed": 27222,
      "internal_node_id": "0.0-4.0-1.0-0.0",
      "responseType": "finish",
      "participantID": "uj2f25eu8zp9yquacdgs2vxcwe3d6eeq",
      "problems_seen": [
        "Solve this anagram: AYKAWLJ",
        "Next week I am going to have lunch with my friend, visit the new art gallery, go to the Social Security office, and have my teeth checked at the dentist. My friend cannot meet me on Wednesday; the Social Security office is closed weekends; the dentist has office hours only on Tuesday, Friday, and Saturday; the art gallery is closed Tuesday, Thursday, and weekends. On what single day can I do everything I have planned?"
      ]
    },
    {
      "rt": 3397.0999999046326,
      "response": "0",
      "stimulus": "<center><p>How close are you towards solving this problem?</p></center>",
      "trial_type": "html-slider-response",
      "trial_index": 6,
      "time_elapsed": 30628,
      "internal_node_id": "0.0-4.0-1.0-1.0",
      "responseType": "finish",
      "participantID": "uj2f25eu8zp9yquacdgs2vxcwe3d6eeq",
      "problems_seen": [
        "Solve this anagram: AYKAWLJ",
        "Next week I am going to have lunch with my friend, visit the new art gallery, go to the Social Security office, and have my teeth checked at the dentist. My friend cannot meet me on Wednesday; the Social Security office is closed weekends; the dentist has office hours only on Tuesday, Friday, and Saturday; the art gallery is closed Tuesday, Thursday, and weekends. On what single day can I do everything I have planned?"
      ]
    },
    {
      "rt": 4706,
      "responses": "{\"Q0\":\"\"}",
      "trial_type": "survey-text",
      "trial_index": 7,
      "time_elapsed": 35336,
      "internal_node_id": "0.0-4.0-2.0",
      "responseType": "finish",
      "participantID": "uj2f25eu8zp9yquacdgs2vxcwe3d6eeq",
      "problems_seen": [
        "Solve this anagram: AYKAWLJ",
        "Next week I am going to have lunch with my friend, visit the new art gallery, go to the Social Security office, and have my teeth checked at the dentist. My friend cannot meet me on Wednesday; the Social Security office is closed weekends; the dentist has office hours only on Tuesday, Friday, and Saturday; the art gallery is closed Tuesday, Thursday, and weekends. On what single day can I do everything I have planned?"
      ]
    },
    {
      "rt": 15399,
      "responses": "{\"Q0\":0,\"Q1\":1,\"Q2\":0}",
      "trial_type": "survey-likert",
      "trial_index": 8,
      "time_elapsed": 50737,
      "internal_node_id": "0.0-4.0-3.0-0.0",
      "responseType": "finish",
      "participantID": "uj2f25eu8zp9yquacdgs2vxcwe3d6eeq",
      "problems_seen": [
        "Solve this anagram: AYKAWLJ",
        "Next week I am going to have lunch with my friend, visit the new art gallery, go to the Social Security office, and have my teeth checked at the dentist. My friend cannot meet me on Wednesday; the Social Security office is closed weekends; the dentist has office hours only on Tuesday, Friday, and Saturday; the art gallery is closed Tuesday, Thursday, and weekends. On what single day can I do everything I have planned?"
      ]
    },
    {
      "rt": 1360,
      "stimulus": "<blockquote>\n  <p>Now a problem will be shown to you. <br><br> Press 'v' to view the problem.</p>\n</blockquote>",
      "key_press": 86,
      "trial_type": "html-keyboard-response",
      "trial_index": 9,
      "time_elapsed": 52099,
      "internal_node_id": "0.0-4.1-0.1",
      "responseType": "finish",
      "participantID": "uj2f25eu8zp9yquacdgs2vxcwe3d6eeq",
      "problems_seen": [
        "Solve this anagram: AYKAWLJ",
        "Next week I am going to have lunch with my friend, visit the new art gallery, go to the Social Security office, and have my teeth checked at the dentist. My friend cannot meet me on Wednesday; the Social Security office is closed weekends; the dentist has office hours only on Tuesday, Friday, and Saturday; the art gallery is closed Tuesday, Thursday, and weekends. On what single day can I do everything I have planned?"
      ]
    },
    {
      "rt": 7002,
      "responses": "{\"Q0\":\"\"}",
      "trial_type": "survey-text",
      "trial_index": 10,
      "time_elapsed": 59106,
      "internal_node_id": "0.0-4.1-1.1-0.1",
      "responseType": "finish",
      "participantID": "uj2f25eu8zp9yquacdgs2vxcwe3d6eeq",
      "problems_seen": [
        "Solve this anagram: AYKAWLJ",
        "Next week I am going to have lunch with my friend, visit the new art gallery, go to the Social Security office, and have my teeth checked at the dentist. My friend cannot meet me on Wednesday; the Social Security office is closed weekends; the dentist has office hours only on Tuesday, Friday, and Saturday; the art gallery is closed Tuesday, Thursday, and weekends. On what single day can I do everything I have planned?"
      ]
    },
    {
      "rt": 3990,
      "response": "5",
      "stimulus": "<center><p>How close are you towards solving this problem?</p></center>",
      "trial_type": "html-slider-response",
      "trial_index": 11,
      "time_elapsed": 63100,
      "internal_node_id": "0.0-4.1-1.1-1.1",
      "responseType": "finish",
      "participantID": "uj2f25eu8zp9yquacdgs2vxcwe3d6eeq",
      "problems_seen": [
        "Solve this anagram: AYKAWLJ",
        "Next week I am going to have lunch with my friend, visit the new art gallery, go to the Social Security office, and have my teeth checked at the dentist. My friend cannot meet me on Wednesday; the Social Security office is closed weekends; the dentist has office hours only on Tuesday, Friday, and Saturday; the art gallery is closed Tuesday, Thursday, and weekends. On what single day can I do everything I have planned?"
      ]
    },
    {
      "rt": 5797,
      "responses": "{\"Q0\":\"SKIP\"}",
      "trial_type": "survey-text",
      "trial_index": 12,
      "time_elapsed": 68899,
      "internal_node_id": "0.0-4.1-1.2-0.2",
      "responseType": "finish",
      "participantID": "uj2f25eu8zp9yquacdgs2vxcwe3d6eeq",
      "problems_seen": [
        "Solve this anagram: AYKAWLJ",
        "Next week I am going to have lunch with my friend, visit the new art gallery, go to the Social Security office, and have my teeth checked at the dentist. My friend cannot meet me on Wednesday; the Social Security office is closed weekends; the dentist has office hours only on Tuesday, Friday, and Saturday; the art gallery is closed Tuesday, Thursday, and weekends. On what single day can I do everything I have planned?"
      ]
    },
    {
      "rt": 2275.600000023842,
      "response": "11",
      "stimulus": "<center><p>How close are you towards solving this problem?</p></center>",
      "trial_type": "html-slider-response",
      "trial_index": 13,
      "time_elapsed": 71177,
      "internal_node_id": "0.0-4.1-1.2-1.2",
      "responseType": "finish",
      "participantID": "uj2f25eu8zp9yquacdgs2vxcwe3d6eeq",
      "problems_seen": [
        "Solve this anagram: AYKAWLJ",
        "Next week I am going to have lunch with my friend, visit the new art gallery, go to the Social Security office, and have my teeth checked at the dentist. My friend cannot meet me on Wednesday; the Social Security office is closed weekends; the dentist has office hours only on Tuesday, Friday, and Saturday; the art gallery is closed Tuesday, Thursday, and weekends. On what single day can I do everything I have planned?"
      ]
    },
    {
      "rt": 3255,
      "responses": "{\"Q0\":\"\"}",
      "trial_type": "survey-text",
      "trial_index": 14,
      "time_elapsed": 74434,
      "internal_node_id": "0.0-4.1-2.1",
      "responseType": "finish",
      "participantID": "uj2f25eu8zp9yquacdgs2vxcwe3d6eeq",
      "problems_seen": [
        "Solve this anagram: AYKAWLJ",
        "Next week I am going to have lunch with my friend, visit the new art gallery, go to the Social Security office, and have my teeth checked at the dentist. My friend cannot meet me on Wednesday; the Social Security office is closed weekends; the dentist has office hours only on Tuesday, Friday, and Saturday; the art gallery is closed Tuesday, Thursday, and weekends. On what single day can I do everything I have planned?"
      ]
    },
    {
      "rt": 3962,
      "responses": "{\"Q0\":1,\"Q1\":1,\"Q2\":1}",
      "trial_type": "survey-likert",
      "trial_index": 15,
      "time_elapsed": 78398,
      "internal_node_id": "0.0-4.1-3.1-0.1",
      "responseType": "finish",
      "participantID": "uj2f25eu8zp9yquacdgs2vxcwe3d6eeq",
      "problems_seen": [
        "Solve this anagram: AYKAWLJ",
        "Next week I am going to have lunch with my friend, visit the new art gallery, go to the Social Security office, and have my teeth checked at the dentist. My friend cannot meet me on Wednesday; the Social Security office is closed weekends; the dentist has office hours only on Tuesday, Friday, and Saturday; the art gallery is closed Tuesday, Thursday, and weekends. On what single day can I do everything I have planned?"
      ]
    }
  ],
  "__v": 0
},{
  "_id": {
    "$oid": "61ef1d92dd352b0004529f3e"
  },
  "data": {
    "responseType": "start",
    "participantID": "sksd3pqrk8kvsk1v15ve1015fxbto4q8",
    "problems_seen": [
      "The following verse spells out a word. I am a food for you and me. My first letter is in pat but not in tar. My second letter is in stream but not in smart. My third letter is in giraffe but not in fridge. My fourth letter is in treat but not in absent. What is the word that this verse described?",
      "Solve this anagram: AALRYS"
    ]
  },
  "__v": 0
},{
  "_id": {
    "$oid": "61ef1de2dd352b0004529f3f"
  },
  "data": {
    "responseType": "start",
    "participantID": "ajx19olnrkerkoxwx7fsn04zwkovqs60",
    "problems_seen": [
      "Solve this anagram: AYKAWLJ",
      "What day follows the day before yesterday if two days from now will be Sunday?"
    ]
  },
  "__v": 0
},{
  "_id": {
    "$oid": "61ef1de3dd352b0004529f40"
  },
  "data": [
    {
      "rt": 9126,
      "responses": "{\"Q0\":\" I consent to participate\"}",
      "trial_type": "survey-multi-choice",
      "trial_index": 0,
      "time_elapsed": 9133,
      "internal_node_id": "0.0-0.0",
      "responseType": "finish",
      "participantID": "ec3rq4a4lhtx6eayntq54hdf5onkmgd0",
      "problems_seen": [
        "Solve this anagram: MARNOD",
        "A group of soldiers were standing facing west. Their sergeant shouted at them: Right turn! U-turn! Left turn! U-turn! Right turn! U-turn! Left turn! Right turn! In which direction are they now facing?"
      ]
    },
    {
      "trial_type": "call-function",
      "trial_index": 1,
      "time_elapsed": 9139,
      "internal_node_id": "0.0-1.0",
      "responseType": "finish",
      "participantID": "ec3rq4a4lhtx6eayntq54hdf5onkmgd0",
      "problems_seen": [
        "Solve this anagram: MARNOD",
        "A group of soldiers were standing facing west. Their sergeant shouted at them: Right turn! U-turn! Left turn! U-turn! Right turn! U-turn! Left turn! Right turn! In which direction are they now facing?"
      ]
    },
    {
      "view_history": "[{\"page_index\":0,\"viewing_time\":3098},{\"page_index\":1,\"viewing_time\":62073},{\"page_index\":2,\"viewing_time\":8676}]",
      "rt": 73848,
      "trial_type": "instructions",
      "trial_index": 2,
      "time_elapsed": 82988,
      "internal_node_id": "0.0-2.0",
      "responseType": "finish",
      "participantID": "ec3rq4a4lhtx6eayntq54hdf5onkmgd0",
      "problems_seen": [
        "Solve this anagram: MARNOD",
        "A group of soldiers were standing facing west. Their sergeant shouted at them: Right turn! U-turn! Left turn! U-turn! Right turn! U-turn! Left turn! Right turn! In which direction are they now facing?"
      ]
    },
    {
      "rt": 12920,
      "responses": "{\"Q0\":\"DONE when the problem is solved and SKIP when I want to move on the next problem\"}",
      "trial_type": "survey-multi-choice",
      "trial_index": 3,
      "time_elapsed": 95914,
      "internal_node_id": "0.0-3.0",
      "responseType": "finish",
      "participantID": "ec3rq4a4lhtx6eayntq54hdf5onkmgd0",
      "problems_seen": [
        "Solve this anagram: MARNOD",
        "A group of soldiers were standing facing west. Their sergeant shouted at them: Right turn! U-turn! Left turn! U-turn! Right turn! U-turn! Left turn! Right turn! In which direction are they now facing?"
      ]
    },
    {
      "rt": 3088,
      "stimulus": "<blockquote>\n  <p>Now a problem will be shown to you. <br><br> Press 'v' to view the problem.</p>\n</blockquote>",
      "key_press": 86,
      "trial_type": "html-keyboard-response",
      "trial_index": 4,
      "time_elapsed": 99004,
      "internal_node_id": "0.0-4.0-0.0",
      "responseType": "finish",
      "participantID": "ec3rq4a4lhtx6eayntq54hdf5onkmgd0",
      "problems_seen": [
        "Solve this anagram: MARNOD",
        "A group of soldiers were standing facing west. Their sergeant shouted at them: Right turn! U-turn! Left turn! U-turn! Right turn! U-turn! Left turn! Right turn! In which direction are they now facing?"
      ]
    },
    {
      "rt": 7001,
      "responses": "{\"Q0\":\"\"}",
      "trial_type": "survey-text",
      "trial_index": 5,
      "time_elapsed": 106017,
      "internal_node_id": "0.0-4.0-1.0-0.0",
      "responseType": "finish",
      "participantID": "ec3rq4a4lhtx6eayntq54hdf5onkmgd0",
      "problems_seen": [
        "Solve this anagram: MARNOD",
        "A group of soldiers were standing facing west. Their sergeant shouted at them: Right turn! U-turn! Left turn! U-turn! Right turn! U-turn! Left turn! Right turn! In which direction are they now facing?"
      ]
    },
    {
      "rt": 5074.5,
      "response": "3",
      "stimulus": "<center><p>How close are you towards solving this problem?</p></center>",
      "trial_type": "html-slider-response",
      "trial_index": 6,
      "time_elapsed": 111095,
      "internal_node_id": "0.0-4.0-1.0-1.0",
      "responseType": "finish",
      "participantID": "ec3rq4a4lhtx6eayntq54hdf5onkmgd0",
      "problems_seen": [
        "Solve this anagram: MARNOD",
        "A group of soldiers were standing facing west. Their sergeant shouted at them: Right turn! U-turn! Left turn! U-turn! Right turn! U-turn! Left turn! Right turn! In which direction are they now facing?"
      ]
    },
    {
      "rt": 7005,
      "responses": "{\"Q0\":\"\"}",
      "trial_type": "survey-text",
      "trial_index": 7,
      "time_elapsed": 118106,
      "internal_node_id": "0.0-4.0-1.1-0.1",
      "responseType": "finish",
      "participantID": "ec3rq4a4lhtx6eayntq54hdf5onkmgd0",
      "problems_seen": [
        "Solve this anagram: MARNOD",
        "A group of soldiers were standing facing west. Their sergeant shouted at them: Right turn! U-turn! Left turn! U-turn! Right turn! U-turn! Left turn! Right turn! In which direction are they now facing?"
      ]
    },
    {
      "rt": 21521.700000047684,
      "response": "8",
      "stimulus": "<center><p>How close are you towards solving this problem?</p></center>",
      "trial_type": "html-slider-response",
      "trial_index": 8,
      "time_elapsed": 139629,
      "internal_node_id": "0.0-4.0-1.1-1.1",
      "responseType": "finish",
      "participantID": "ec3rq4a4lhtx6eayntq54hdf5onkmgd0",
      "problems_seen": [
        "Solve this anagram: MARNOD",
        "A group of soldiers were standing facing west. Their sergeant shouted at them: Right turn! U-turn! Left turn! U-turn! Right turn! U-turn! Left turn! Right turn! In which direction are they now facing?"
      ]
    },
    {
      "rt": 7005,
      "responses": "{\"Q0\":\"\"}",
      "trial_type": "survey-text",
      "trial_index": 9,
      "time_elapsed": 146638,
      "internal_node_id": "0.0-4.0-1.2-0.2",
      "responseType": "finish",
      "participantID": "ec3rq4a4lhtx6eayntq54hdf5onkmgd0",
      "problems_seen": [
        "Solve this anagram: MARNOD",
        "A group of soldiers were standing facing west. Their sergeant shouted at them: Right turn! U-turn! Left turn! U-turn! Right turn! U-turn! Left turn! Right turn! In which direction are they now facing?"
      ]
    },
    {
      "rt": 12627.600000023842,
      "response": "27",
      "stimulus": "<center><p>How close are you towards solving this problem?</p></center>",
      "trial_type": "html-slider-response",
      "trial_index": 10,
      "time_elapsed": 159267,
      "internal_node_id": "0.0-4.0-1.2-1.2",
      "responseType": "finish",
      "participantID": "ec3rq4a4lhtx6eayntq54hdf5onkmgd0",
      "problems_seen": [
        "Solve this anagram: MARNOD",
        "A group of soldiers were standing facing west. Their sergeant shouted at them: Right turn! U-turn! Left turn! U-turn! Right turn! U-turn! Left turn! Right turn! In which direction are they now facing?"
      ]
    },
    {
      "rt": 7006,
      "responses": "{\"Q0\":\"\"}",
      "trial_type": "survey-text",
      "trial_index": 11,
      "time_elapsed": 166278,
      "internal_node_id": "0.0-4.0-1.3-0.3",
      "responseType": "finish",
      "participantID": "ec3rq4a4lhtx6eayntq54hdf5onkmgd0",
      "problems_seen": [
        "Solve this anagram: MARNOD",
        "A group of soldiers were standing facing west. Their sergeant shouted at them: Right turn! U-turn! Left turn! U-turn! Right turn! U-turn! Left turn! Right turn! In which direction are they now facing?"
      ]
    },
    {
      "rt": 9235.399999976158,
      "response": "36",
      "stimulus": "<center><p>How close are you towards solving this problem?</p></center>",
      "trial_type": "html-slider-response",
      "trial_index": 12,
      "time_elapsed": 175515,
      "internal_node_id": "0.0-4.0-1.3-1.3",
      "responseType": "finish",
      "participantID": "ec3rq4a4lhtx6eayntq54hdf5onkmgd0",
      "problems_seen": [
        "Solve this anagram: MARNOD",
        "A group of soldiers were standing facing west. Their sergeant shouted at them: Right turn! U-turn! Left turn! U-turn! Right turn! U-turn! Left turn! Right turn! In which direction are they now facing?"
      ]
    },
    {
      "rt": 7001,
      "responses": "{\"Q0\":\"random\"}",
      "trial_type": "survey-text",
      "trial_index": 13,
      "time_elapsed": 182520,
      "internal_node_id": "0.0-4.0-1.4-0.4",
      "responseType": "finish",
      "participantID": "ec3rq4a4lhtx6eayntq54hdf5onkmgd0",
      "problems_seen": [
        "Solve this anagram: MARNOD",
        "A group of soldiers were standing facing west. Their sergeant shouted at them: Right turn! U-turn! Left turn! U-turn! Right turn! U-turn! Left turn! Right turn! In which direction are they now facing?"
      ]
    },
    {
      "rt": 3796.1999999284744,
      "response": "100",
      "stimulus": "<center><p>How close are you towards solving this problem?</p></center>",
      "trial_type": "html-slider-response",
      "trial_index": 14,
      "time_elapsed": 186319,
      "internal_node_id": "0.0-4.0-1.4-1.4",
      "responseType": "finish",
      "participantID": "ec3rq4a4lhtx6eayntq54hdf5onkmgd0",
      "problems_seen": [
        "Solve this anagram: MARNOD",
        "A group of soldiers were standing facing west. Their sergeant shouted at them: Right turn! U-turn! Left turn! U-turn! Right turn! U-turn! Left turn! Right turn! In which direction are they now facing?"
      ]
    },
    {
      "rt": 6613,
      "responses": "{\"Q0\":\"DONE\"}",
      "trial_type": "survey-text",
      "trial_index": 15,
      "time_elapsed": 192945,
      "internal_node_id": "0.0-4.0-1.5-0.5",
      "responseType": "finish",
      "participantID": "ec3rq4a4lhtx6eayntq54hdf5onkmgd0",
      "problems_seen": [
        "Solve this anagram: MARNOD",
        "A group of soldiers were standing facing west. Their sergeant shouted at them: Right turn! U-turn! Left turn! U-turn! Right turn! U-turn! Left turn! Right turn! In which direction are they now facing?"
      ]
    },
    {
      "rt": 4056.4000000953674,
      "response": "100",
      "stimulus": "<center><p>How close are you towards solving this problem?</p></center>",
      "trial_type": "html-slider-response",
      "trial_index": 16,
      "time_elapsed": 197004,
      "internal_node_id": "0.0-4.0-1.5-1.5",
      "responseType": "finish",
      "participantID": "ec3rq4a4lhtx6eayntq54hdf5onkmgd0",
      "problems_seen": [
        "Solve this anagram: MARNOD",
        "A group of soldiers were standing facing west. Their sergeant shouted at them: Right turn! U-turn! Left turn! U-turn! Right turn! U-turn! Left turn! Right turn! In which direction are they now facing?"
      ]
    },
    {
      "rt": 6845,
      "responses": "{\"Q0\":\"RANDOM\"}",
      "trial_type": "survey-text",
      "trial_index": 17,
      "time_elapsed": 203851,
      "internal_node_id": "0.0-4.0-2.0",
      "responseType": "finish",
      "participantID": "ec3rq4a4lhtx6eayntq54hdf5onkmgd0",
      "problems_seen": [
        "Solve this anagram: MARNOD",
        "A group of soldiers were standing facing west. Their sergeant shouted at them: Right turn! U-turn! Left turn! U-turn! Right turn! U-turn! Left turn! Right turn! In which direction are they now facing?"
      ]
    },
    {
      "rt": 28503,
      "responses": "{\"Q0\":5,\"Q1\":3,\"Q2\":3}",
      "trial_type": "survey-likert",
      "trial_index": 18,
      "time_elapsed": 232357,
      "internal_node_id": "0.0-4.0-3.0-0.0",
      "responseType": "finish",
      "participantID": "ec3rq4a4lhtx6eayntq54hdf5onkmgd0",
      "problems_seen": [
        "Solve this anagram: MARNOD",
        "A group of soldiers were standing facing west. Their sergeant shouted at them: Right turn! U-turn! Left turn! U-turn! Right turn! U-turn! Left turn! Right turn! In which direction are they now facing?"
      ]
    },
    {
      "rt": 1569,
      "stimulus": "<blockquote>\n  <p>Now a problem will be shown to you. <br><br> Press 'v' to view the problem.</p>\n</blockquote>",
      "key_press": 86,
      "trial_type": "html-keyboard-response",
      "trial_index": 19,
      "time_elapsed": 233928,
      "internal_node_id": "0.0-4.1-0.1",
      "responseType": "finish",
      "participantID": "ec3rq4a4lhtx6eayntq54hdf5onkmgd0",
      "problems_seen": [
        "Solve this anagram: MARNOD",
        "A group of soldiers were standing facing west. Their sergeant shouted at them: Right turn! U-turn! Left turn! U-turn! Right turn! U-turn! Left turn! Right turn! In which direction are they now facing?"
      ]
    },
    {
      "rt": 7003,
      "responses": "{\"Q0\":\"\"}",
      "trial_type": "survey-text",
      "trial_index": 20,
      "time_elapsed": 240935,
      "internal_node_id": "0.0-4.1-1.6-0.6",
      "responseType": "finish",
      "participantID": "ec3rq4a4lhtx6eayntq54hdf5onkmgd0",
      "problems_seen": [
        "Solve this anagram: MARNOD",
        "A group of soldiers were standing facing west. Their sergeant shouted at them: Right turn! U-turn! Left turn! U-turn! Right turn! U-turn! Left turn! Right turn! In which direction are they now facing?"
      ]
    },
    {
      "rt": 4018.399999976158,
      "response": "0",
      "stimulus": "<center><p>How close are you towards solving this problem?</p></center>",
      "trial_type": "html-slider-response",
      "trial_index": 21,
      "time_elapsed": 244955,
      "internal_node_id": "0.0-4.1-1.6-1.6",
      "responseType": "finish",
      "participantID": "ec3rq4a4lhtx6eayntq54hdf5onkmgd0",
      "problems_seen": [
        "Solve this anagram: MARNOD",
        "A group of soldiers were standing facing west. Their sergeant shouted at them: Right turn! U-turn! Left turn! U-turn! Right turn! U-turn! Left turn! Right turn! In which direction are they now facing?"
      ]
    },
    {
      "rt": 7001,
      "responses": "{\"Q0\":\"\"}",
      "trial_type": "survey-text",
      "trial_index": 22,
      "time_elapsed": 251958,
      "internal_node_id": "0.0-4.1-1.7-0.7",
      "responseType": "finish",
      "participantID": "ec3rq4a4lhtx6eayntq54hdf5onkmgd0",
      "problems_seen": [
        "Solve this anagram: MARNOD",
        "A group of soldiers were standing facing west. Their sergeant shouted at them: Right turn! U-turn! Left turn! U-turn! Right turn! U-turn! Left turn! Right turn! In which direction are they now facing?"
      ]
    },
    {
      "rt": 3534.5,
      "response": "1",
      "stimulus": "<center><p>How close are you towards solving this problem?</p></center>",
      "trial_type": "html-slider-response",
      "trial_index": 23,
      "time_elapsed": 255494,
      "internal_node_id": "0.0-4.1-1.7-1.7",
      "responseType": "finish",
      "participantID": "ec3rq4a4lhtx6eayntq54hdf5onkmgd0",
      "problems_seen": [
        "Solve this anagram: MARNOD",
        "A group of soldiers were standing facing west. Their sergeant shouted at them: Right turn! U-turn! Left turn! U-turn! Right turn! U-turn! Left turn! Right turn! In which direction are they now facing?"
      ]
    },
    {
      "rt": 7005,
      "responses": "{\"Q0\":\"\"}",
      "trial_type": "survey-text",
      "trial_index": 24,
      "time_elapsed": 262511,
      "internal_node_id": "0.0-4.1-1.8-0.8",
      "responseType": "finish",
      "participantID": "ec3rq4a4lhtx6eayntq54hdf5onkmgd0",
      "problems_seen": [
        "Solve this anagram: MARNOD",
        "A group of soldiers were standing facing west. Their sergeant shouted at them: Right turn! U-turn! Left turn! U-turn! Right turn! U-turn! Left turn! Right turn! In which direction are they now facing?"
      ]
    },
    {
      "rt": 19910.199999928474,
      "response": "0",
      "stimulus": "<center><p>How close are you towards solving this problem?</p></center>",
      "trial_type": "html-slider-response",
      "trial_index": 25,
      "time_elapsed": 282423,
      "internal_node_id": "0.0-4.1-1.8-1.8",
      "responseType": "finish",
      "participantID": "ec3rq4a4lhtx6eayntq54hdf5onkmgd0",
      "problems_seen": [
        "Solve this anagram: MARNOD",
        "A group of soldiers were standing facing west. Their sergeant shouted at them: Right turn! U-turn! Left turn! U-turn! Right turn! U-turn! Left turn! Right turn! In which direction are they now facing?"
      ]
    },
    {
      "rt": 7005,
      "responses": "{\"Q0\":\"\"}",
      "trial_type": "survey-text",
      "trial_index": 26,
      "time_elapsed": 289431,
      "internal_node_id": "0.0-4.1-1.9-0.9",
      "responseType": "finish",
      "participantID": "ec3rq4a4lhtx6eayntq54hdf5onkmgd0",
      "problems_seen": [
        "Solve this anagram: MARNOD",
        "A group of soldiers were standing facing west. Their sergeant shouted at them: Right turn! U-turn! Left turn! U-turn! Right turn! U-turn! Left turn! Right turn! In which direction are they now facing?"
      ]
    },
    {
      "rt": 4079.8000000715256,
      "response": "0",
      "stimulus": "<center><p>How close are you towards solving this problem?</p></center>",
      "trial_type": "html-slider-response",
      "trial_index": 27,
      "time_elapsed": 293512,
      "internal_node_id": "0.0-4.1-1.9-1.9",
      "responseType": "finish",
      "participantID": "ec3rq4a4lhtx6eayntq54hdf5onkmgd0",
      "problems_seen": [
        "Solve this anagram: MARNOD",
        "A group of soldiers were standing facing west. Their sergeant shouted at them: Right turn! U-turn! Left turn! U-turn! Right turn! U-turn! Left turn! Right turn! In which direction are they now facing?"
      ]
    },
    {
      "rt": 7006,
      "responses": "{\"Q0\":\"\"}",
      "trial_type": "survey-text",
      "trial_index": 28,
      "time_elapsed": 300519,
      "internal_node_id": "0.0-4.1-1.10-0.10",
      "responseType": "finish",
      "participantID": "ec3rq4a4lhtx6eayntq54hdf5onkmgd0",
      "problems_seen": [
        "Solve this anagram: MARNOD",
        "A group of soldiers were standing facing west. Their sergeant shouted at them: Right turn! U-turn! Left turn! U-turn! Right turn! U-turn! Left turn! Right turn! In which direction are they now facing?"
      ]
    },
    {
      "rt": 92643.70000004768,
      "response": "100",
      "stimulus": "<center><p>How close are you towards solving this problem?</p></center>",
      "trial_type": "html-slider-response",
      "trial_index": 29,
      "time_elapsed": 393164,
      "internal_node_id": "0.0-4.1-1.10-1.10",
      "responseType": "finish",
      "participantID": "ec3rq4a4lhtx6eayntq54hdf5onkmgd0",
      "problems_seen": [
        "Solve this anagram: MARNOD",
        "A group of soldiers were standing facing west. Their sergeant shouted at them: Right turn! U-turn! Left turn! U-turn! Right turn! U-turn! Left turn! Right turn! In which direction are they now facing?"
      ]
    },
    {
      "rt": 4659,
      "responses": "{\"Q0\":\"DONE\"}",
      "trial_type": "survey-text",
      "trial_index": 30,
      "time_elapsed": 397825,
      "internal_node_id": "0.0-4.1-1.11-0.11",
      "responseType": "finish",
      "participantID": "ec3rq4a4lhtx6eayntq54hdf5onkmgd0",
      "problems_seen": [
        "Solve this anagram: MARNOD",
        "A group of soldiers were standing facing west. Their sergeant shouted at them: Right turn! U-turn! Left turn! U-turn! Right turn! U-turn! Left turn! Right turn! In which direction are they now facing?"
      ]
    },
    {
      "rt": 5520.899999976158,
      "response": "93",
      "stimulus": "<center><p>How close are you towards solving this problem?</p></center>",
      "trial_type": "html-slider-response",
      "trial_index": 31,
      "time_elapsed": 403353,
      "internal_node_id": "0.0-4.1-1.11-1.11",
      "responseType": "finish",
      "participantID": "ec3rq4a4lhtx6eayntq54hdf5onkmgd0",
      "problems_seen": [
        "Solve this anagram: MARNOD",
        "A group of soldiers were standing facing west. Their sergeant shouted at them: Right turn! U-turn! Left turn! U-turn! Right turn! U-turn! Left turn! Right turn! In which direction are they now facing?"
      ]
    },
    {
      "rt": 30787,
      "responses": "{\"Q0\":\"You are back to where you initially started\"}",
      "trial_type": "survey-text",
      "trial_index": 32,
      "time_elapsed": 434143,
      "internal_node_id": "0.0-4.1-2.1",
      "responseType": "finish",
      "participantID": "ec3rq4a4lhtx6eayntq54hdf5onkmgd0",
      "problems_seen": [
        "Solve this anagram: MARNOD",
        "A group of soldiers were standing facing west. Their sergeant shouted at them: Right turn! U-turn! Left turn! U-turn! Right turn! U-turn! Left turn! Right turn! In which direction are they now facing?"
      ]
    },
    {
      "rt": 11770,
      "responses": "{\"Q0\":1,\"Q1\":5,\"Q2\":1}",
      "trial_type": "survey-likert",
      "trial_index": 33,
      "time_elapsed": 445917,
      "internal_node_id": "0.0-4.1-3.1-0.1",
      "responseType": "finish",
      "participantID": "ec3rq4a4lhtx6eayntq54hdf5onkmgd0",
      "problems_seen": [
        "Solve this anagram: MARNOD",
        "A group of soldiers were standing facing west. Their sergeant shouted at them: Right turn! U-turn! Left turn! U-turn! Right turn! U-turn! Left turn! Right turn! In which direction are they now facing?"
      ]
    }
  ],
  "__v": 0
},{
  "_id": {
    "$oid": "61ef1e25dd352b0004529f41"
  },
  "data": {
    "responseType": "start",
    "participantID": "aopzadvajgs5q65nq3vxjencjeqdgedf",
    "problems_seen": [
      "Solve this anagram: MARNOD",
      "A group of soldiers were standing facing west. Their sergeant shouted at them: Right turn! U-turn! Left turn! U-turn! Right turn! U-turn! Left turn! Right turn! In which direction are they now facing?"
    ]
  },
  "__v": 0
},{
  "_id": {
    "$oid": "61ef1e79dd352b0004529f42"
  },
  "data": [
    {
      "rt": 5926,
      "responses": "{\"Q0\":\" I consent to participate\"}",
      "trial_type": "survey-multi-choice",
      "trial_index": 0,
      "time_elapsed": 5930,
      "internal_node_id": "0.0-0.0",
      "responseType": "finish",
      "participantID": "ajx19olnrkerkoxwx7fsn04zwkovqs60",
      "problems_seen": [
        "Solve this anagram: AYKAWLJ",
        "What day follows the day before yesterday if two days from now will be Sunday?"
      ]
    },
    {
      "trial_type": "call-function",
      "trial_index": 1,
      "time_elapsed": 5932,
      "internal_node_id": "0.0-1.0",
      "responseType": "finish",
      "participantID": "ajx19olnrkerkoxwx7fsn04zwkovqs60",
      "problems_seen": [
        "Solve this anagram: AYKAWLJ",
        "What day follows the day before yesterday if two days from now will be Sunday?"
      ]
    },
    {
      "view_history": "[{\"page_index\":0,\"viewing_time\":9366},{\"page_index\":1,\"viewing_time\":12034},{\"page_index\":2,\"viewing_time\":5638}]",
      "rt": 27042,
      "trial_type": "instructions",
      "trial_index": 2,
      "time_elapsed": 32974,
      "internal_node_id": "0.0-2.0",
      "responseType": "finish",
      "participantID": "ajx19olnrkerkoxwx7fsn04zwkovqs60",
      "problems_seen": [
        "Solve this anagram: AYKAWLJ",
        "What day follows the day before yesterday if two days from now will be Sunday?"
      ]
    },
    {
      "rt": 17200,
      "responses": "{\"Q0\":\"DONE when the problem is solved and SKIP when I want to move on the next problem\"}",
      "trial_type": "survey-multi-choice",
      "trial_index": 3,
      "time_elapsed": 50177,
      "internal_node_id": "0.0-3.0",
      "responseType": "finish",
      "participantID": "ajx19olnrkerkoxwx7fsn04zwkovqs60",
      "problems_seen": [
        "Solve this anagram: AYKAWLJ",
        "What day follows the day before yesterday if two days from now will be Sunday?"
      ]
    },
    {
      "rt": 2776,
      "stimulus": "<blockquote>\n  <p>Now a problem will be shown to you. <br><br> Press 'v' to view the problem.</p>\n</blockquote>",
      "key_press": 86,
      "trial_type": "html-keyboard-response",
      "trial_index": 4,
      "time_elapsed": 52955,
      "internal_node_id": "0.0-4.0-0.0",
      "responseType": "finish",
      "participantID": "ajx19olnrkerkoxwx7fsn04zwkovqs60",
      "problems_seen": [
        "Solve this anagram: AYKAWLJ",
        "What day follows the day before yesterday if two days from now will be Sunday?"
      ]
    },
    {
      "rt": 7001,
      "responses": "{\"Q0\":\"\"}",
      "trial_type": "survey-text",
      "trial_index": 5,
      "time_elapsed": 59967,
      "internal_node_id": "0.0-4.0-1.0-0.0",
      "responseType": "finish",
      "participantID": "ajx19olnrkerkoxwx7fsn04zwkovqs60",
      "problems_seen": [
        "Solve this anagram: AYKAWLJ",
        "What day follows the day before yesterday if two days from now will be Sunday?"
      ]
    },
    {
      "rt": 2965.899999976158,
      "response": "10",
      "stimulus": "<center><p>How close are you towards solving this problem?</p></center>",
      "trial_type": "html-slider-response",
      "trial_index": 6,
      "time_elapsed": 62935,
      "internal_node_id": "0.0-4.0-1.0-1.0",
      "responseType": "finish",
      "participantID": "ajx19olnrkerkoxwx7fsn04zwkovqs60",
      "problems_seen": [
        "Solve this anagram: AYKAWLJ",
        "What day follows the day before yesterday if two days from now will be Sunday?"
      ]
    },
    {
      "rt": 7014,
      "responses": "{\"Q0\":\"\"}",
      "trial_type": "survey-text",
      "trial_index": 7,
      "time_elapsed": 69952,
      "internal_node_id": "0.0-4.0-1.1-0.1",
      "responseType": "finish",
      "participantID": "ajx19olnrkerkoxwx7fsn04zwkovqs60",
      "problems_seen": [
        "Solve this anagram: AYKAWLJ",
        "What day follows the day before yesterday if two days from now will be Sunday?"
      ]
    },
    {
      "rt": 3002.100000023842,
      "response": "16",
      "stimulus": "<center><p>How close are you towards solving this problem?</p></center>",
      "trial_type": "html-slider-response",
      "trial_index": 8,
      "time_elapsed": 72956,
      "internal_node_id": "0.0-4.0-1.1-1.1",
      "responseType": "finish",
      "participantID": "ajx19olnrkerkoxwx7fsn04zwkovqs60",
      "problems_seen": [
        "Solve this anagram: AYKAWLJ",
        "What day follows the day before yesterday if two days from now will be Sunday?"
      ]
    },
    {
      "rt": 7000,
      "responses": "{\"Q0\":\"\"}",
      "trial_type": "survey-text",
      "trial_index": 9,
      "time_elapsed": 79964,
      "internal_node_id": "0.0-4.0-1.2-0.2",
      "responseType": "finish",
      "participantID": "ajx19olnrkerkoxwx7fsn04zwkovqs60",
      "problems_seen": [
        "Solve this anagram: AYKAWLJ",
        "What day follows the day before yesterday if two days from now will be Sunday?"
      ]
    },
    {
      "rt": 2823.5,
      "response": "15",
      "stimulus": "<center><p>How close are you towards solving this problem?</p></center>",
      "trial_type": "html-slider-response",
      "trial_index": 10,
      "time_elapsed": 82789,
      "internal_node_id": "0.0-4.0-1.2-1.2",
      "responseType": "finish",
      "participantID": "ajx19olnrkerkoxwx7fsn04zwkovqs60",
      "problems_seen": [
        "Solve this anagram: AYKAWLJ",
        "What day follows the day before yesterday if two days from now will be Sunday?"
      ]
    },
    {
      "rt": 3646,
      "responses": "{\"Q0\":\"SKIP\"}",
      "trial_type": "survey-text",
      "trial_index": 11,
      "time_elapsed": 86439,
      "internal_node_id": "0.0-4.0-1.3-0.3",
      "responseType": "finish",
      "participantID": "ajx19olnrkerkoxwx7fsn04zwkovqs60",
      "problems_seen": [
        "Solve this anagram: AYKAWLJ",
        "What day follows the day before yesterday if two days from now will be Sunday?"
      ]
    },
    {
      "rt": 4966.600000023842,
      "response": "19",
      "stimulus": "<center><p>How close are you towards solving this problem?</p></center>",
      "trial_type": "html-slider-response",
      "trial_index": 12,
      "time_elapsed": 91407,
      "internal_node_id": "0.0-4.0-1.3-1.3",
      "responseType": "finish",
      "participantID": "ajx19olnrkerkoxwx7fsn04zwkovqs60",
      "problems_seen": [
        "Solve this anagram: AYKAWLJ",
        "What day follows the day before yesterday if two days from now will be Sunday?"
      ]
    },
    {
      "rt": 5136,
      "responses": "{\"Q0\":\"\"}",
      "trial_type": "survey-text",
      "trial_index": 13,
      "time_elapsed": 96544,
      "internal_node_id": "0.0-4.0-2.0",
      "responseType": "finish",
      "participantID": "ajx19olnrkerkoxwx7fsn04zwkovqs60",
      "problems_seen": [
        "Solve this anagram: AYKAWLJ",
        "What day follows the day before yesterday if two days from now will be Sunday?"
      ]
    },
    {
      "rt": 13486,
      "responses": "{\"Q0\":0,\"Q1\":6,\"Q2\":0}",
      "trial_type": "survey-likert",
      "trial_index": 14,
      "time_elapsed": 110032,
      "internal_node_id": "0.0-4.0-3.0-0.0",
      "responseType": "finish",
      "participantID": "ajx19olnrkerkoxwx7fsn04zwkovqs60",
      "problems_seen": [
        "Solve this anagram: AYKAWLJ",
        "What day follows the day before yesterday if two days from now will be Sunday?"
      ]
    },
    {
      "rt": 2243,
      "stimulus": "<blockquote>\n  <p>Now a problem will be shown to you. <br><br> Press 'v' to view the problem.</p>\n</blockquote>",
      "key_press": 86,
      "trial_type": "html-keyboard-response",
      "trial_index": 15,
      "time_elapsed": 112276,
      "internal_node_id": "0.0-4.1-0.1",
      "responseType": "finish",
      "participantID": "ajx19olnrkerkoxwx7fsn04zwkovqs60",
      "problems_seen": [
        "Solve this anagram: AYKAWLJ",
        "What day follows the day before yesterday if two days from now will be Sunday?"
      ]
    },
    {
      "rt": 7012,
      "responses": "{\"Q0\":\"\"}",
      "trial_type": "survey-text",
      "trial_index": 16,
      "time_elapsed": 119302,
      "internal_node_id": "0.0-4.1-1.4-0.4",
      "responseType": "finish",
      "participantID": "ajx19olnrkerkoxwx7fsn04zwkovqs60",
      "problems_seen": [
        "Solve this anagram: AYKAWLJ",
        "What day follows the day before yesterday if two days from now will be Sunday?"
      ]
    },
    {
      "rt": 2776.100000023842,
      "response": "32",
      "stimulus": "<center><p>How close are you towards solving this problem?</p></center>",
      "trial_type": "html-slider-response",
      "trial_index": 17,
      "time_elapsed": 122079,
      "internal_node_id": "0.0-4.1-1.4-1.4",
      "responseType": "finish",
      "participantID": "ajx19olnrkerkoxwx7fsn04zwkovqs60",
      "problems_seen": [
        "Solve this anagram: AYKAWLJ",
        "What day follows the day before yesterday if two days from now will be Sunday?"
      ]
    },
    {
      "rt": 7009,
      "responses": "{\"Q0\":\"\"}",
      "trial_type": "survey-text",
      "trial_index": 18,
      "time_elapsed": 129092,
      "internal_node_id": "0.0-4.1-1.5-0.5",
      "responseType": "finish",
      "participantID": "ajx19olnrkerkoxwx7fsn04zwkovqs60",
      "problems_seen": [
        "Solve this anagram: AYKAWLJ",
        "What day follows the day before yesterday if two days from now will be Sunday?"
      ]
    },
    {
      "rt": 7688,
      "response": "82",
      "stimulus": "<center><p>How close are you towards solving this problem?</p></center>",
      "trial_type": "html-slider-response",
      "trial_index": 19,
      "time_elapsed": 136781,
      "internal_node_id": "0.0-4.1-1.5-1.5",
      "responseType": "finish",
      "participantID": "ajx19olnrkerkoxwx7fsn04zwkovqs60",
      "problems_seen": [
        "Solve this anagram: AYKAWLJ",
        "What day follows the day before yesterday if two days from now will be Sunday?"
      ]
    },
    {
      "rt": 3013,
      "responses": "{\"Q0\":\"DONE\"}",
      "trial_type": "survey-text",
      "trial_index": 20,
      "time_elapsed": 139808,
      "internal_node_id": "0.0-4.1-1.6-0.6",
      "responseType": "finish",
      "participantID": "ajx19olnrkerkoxwx7fsn04zwkovqs60",
      "problems_seen": [
        "Solve this anagram: AYKAWLJ",
        "What day follows the day before yesterday if two days from now will be Sunday?"
      ]
    },
    {
      "rt": 3920.899999976158,
      "response": "97",
      "stimulus": "<center><p>How close are you towards solving this problem?</p></center>",
      "trial_type": "html-slider-response",
      "trial_index": 21,
      "time_elapsed": 143730,
      "internal_node_id": "0.0-4.1-1.6-1.6",
      "responseType": "finish",
      "participantID": "ajx19olnrkerkoxwx7fsn04zwkovqs60",
      "problems_seen": [
        "Solve this anagram: AYKAWLJ",
        "What day follows the day before yesterday if two days from now will be Sunday?"
      ]
    },
    {
      "rt": 3283,
      "responses": "{\"Q0\":\"Thursday\"}",
      "trial_type": "survey-text",
      "trial_index": 22,
      "time_elapsed": 147014,
      "internal_node_id": "0.0-4.1-2.1",
      "responseType": "finish",
      "participantID": "ajx19olnrkerkoxwx7fsn04zwkovqs60",
      "problems_seen": [
        "Solve this anagram: AYKAWLJ",
        "What day follows the day before yesterday if two days from now will be Sunday?"
      ]
    },
    {
      "rt": 9532,
      "responses": "{\"Q0\":5,\"Q1\":2,\"Q2\":4}",
      "trial_type": "survey-likert",
      "trial_index": 23,
      "time_elapsed": 156548,
      "internal_node_id": "0.0-4.1-3.1-0.1",
      "responseType": "finish",
      "participantID": "ajx19olnrkerkoxwx7fsn04zwkovqs60",
      "problems_seen": [
        "Solve this anagram: AYKAWLJ",
        "What day follows the day before yesterday if two days from now will be Sunday?"
      ]
    }
  ],
  "__v": 0
},{
  "_id": {
    "$oid": "61ef1e7cdd352b0004529f43"
  },
  "data": {
    "responseType": "start",
    "participantID": "z24as8adfup28pbxxzz2wocdfw0ezrm2",
    "problems_seen": [
      "What day follows the day before yesterday if two days from now will be Sunday?",
      "Solve this anagram: EVANG"
    ]
  },
  "__v": 0
},{
  "_id": {
    "$oid": "61ef1e80dd352b0004529f44"
  },
  "data": {
    "responseType": "start",
    "participantID": "e9b5o7ssn1y30ybt4s6hadzsjykaos35",
    "problems_seen": [
      "Ben spent $42 for shoes. This was $14 less than what he spent for a shirt and twice more expensive than the tie. The tie was $20 cheaper than the jeans. How much was the jeans?",
      "Solve this anagram: MARNOD"
    ]
  },
  "__v": 0
},{
  "_id": {
    "$oid": "61ef1e80dd352b0004529f45"
  },
  "data": {
    "responseType": "start",
    "participantID": "5o36vnrd8fr40uz1kxucpk5twa08y6cu",
    "problems_seen": [
      "Solve this anagram: NCRBOA",
      "Ben spent $42 for shoes. This was $14 less than what he spent for a shirt and twice more expensive than the tie. The tie was $20 cheaper than the jeans. How much was the jeans?"
    ]
  },
  "__v": 0
},{
  "_id": {
    "$oid": "61ef1ea8dd352b0004529f46"
  },
  "data": [
    {
      "rt": 8144,
      "responses": "{\"Q0\":\" I consent to participate\"}",
      "trial_type": "survey-multi-choice",
      "trial_index": 0,
      "time_elapsed": 8165,
      "internal_node_id": "0.0-0.0",
      "responseType": "finish",
      "participantID": "kny45yr0mtfygdhvhhwmby89qfppvnyl",
      "problems_seen": [
        "Solve this anagram: EVANG",
        "Next week I am going to have lunch with my friend, visit the new art gallery, go to the Social Security office, and have my teeth checked at the dentist. My friend cannot meet me on Wednesday; the Social Security office is closed weekends; the dentist has office hours only on Tuesday, Friday, and Saturday; the art gallery is closed Tuesday, Thursday, and weekends. On what single day can I do everything I have planned?"
      ]
    },
    {
      "trial_type": "call-function",
      "trial_index": 1,
      "time_elapsed": 8172,
      "internal_node_id": "0.0-1.0",
      "responseType": "finish",
      "participantID": "kny45yr0mtfygdhvhhwmby89qfppvnyl",
      "problems_seen": [
        "Solve this anagram: EVANG",
        "Next week I am going to have lunch with my friend, visit the new art gallery, go to the Social Security office, and have my teeth checked at the dentist. My friend cannot meet me on Wednesday; the Social Security office is closed weekends; the dentist has office hours only on Tuesday, Friday, and Saturday; the art gallery is closed Tuesday, Thursday, and weekends. On what single day can I do everything I have planned?"
      ]
    },
    {
      "view_history": "[{\"page_index\":0,\"viewing_time\":3151},{\"page_index\":1,\"viewing_time\":32927},{\"page_index\":2,\"viewing_time\":7856}]",
      "rt": 43935,
      "trial_type": "instructions",
      "trial_index": 2,
      "time_elapsed": 52107,
      "internal_node_id": "0.0-2.0",
      "responseType": "finish",
      "participantID": "kny45yr0mtfygdhvhhwmby89qfppvnyl",
      "problems_seen": [
        "Solve this anagram: EVANG",
        "Next week I am going to have lunch with my friend, visit the new art gallery, go to the Social Security office, and have my teeth checked at the dentist. My friend cannot meet me on Wednesday; the Social Security office is closed weekends; the dentist has office hours only on Tuesday, Friday, and Saturday; the art gallery is closed Tuesday, Thursday, and weekends. On what single day can I do everything I have planned?"
      ]
    },
    {
      "rt": 15779,
      "responses": "{\"Q0\":\"DONE when the problem is solved and SKIP when I want to move on the next problem\"}",
      "trial_type": "survey-multi-choice",
      "trial_index": 3,
      "time_elapsed": 67890,
      "internal_node_id": "0.0-3.0",
      "responseType": "finish",
      "participantID": "kny45yr0mtfygdhvhhwmby89qfppvnyl",
      "problems_seen": [
        "Solve this anagram: EVANG",
        "Next week I am going to have lunch with my friend, visit the new art gallery, go to the Social Security office, and have my teeth checked at the dentist. My friend cannot meet me on Wednesday; the Social Security office is closed weekends; the dentist has office hours only on Tuesday, Friday, and Saturday; the art gallery is closed Tuesday, Thursday, and weekends. On what single day can I do everything I have planned?"
      ]
    },
    {
      "rt": 6326,
      "stimulus": "<blockquote>\n  <p>Now a problem will be shown to you. <br><br> Press 'v' to view the problem.</p>\n</blockquote>",
      "key_press": 86,
      "trial_type": "html-keyboard-response",
      "trial_index": 4,
      "time_elapsed": 74220,
      "internal_node_id": "0.0-4.0-0.0",
      "responseType": "finish",
      "participantID": "kny45yr0mtfygdhvhhwmby89qfppvnyl",
      "problems_seen": [
        "Solve this anagram: EVANG",
        "Next week I am going to have lunch with my friend, visit the new art gallery, go to the Social Security office, and have my teeth checked at the dentist. My friend cannot meet me on Wednesday; the Social Security office is closed weekends; the dentist has office hours only on Tuesday, Friday, and Saturday; the art gallery is closed Tuesday, Thursday, and weekends. On what single day can I do everything I have planned?"
      ]
    },
    {
      "rt": 7003,
      "responses": "{\"Q0\":\"\"}",
      "trial_type": "survey-text",
      "trial_index": 5,
      "time_elapsed": 81234,
      "internal_node_id": "0.0-4.0-1.0-0.0",
      "responseType": "finish",
      "participantID": "kny45yr0mtfygdhvhhwmby89qfppvnyl",
      "problems_seen": [
        "Solve this anagram: EVANG",
        "Next week I am going to have lunch with my friend, visit the new art gallery, go to the Social Security office, and have my teeth checked at the dentist. My friend cannot meet me on Wednesday; the Social Security office is closed weekends; the dentist has office hours only on Tuesday, Friday, and Saturday; the art gallery is closed Tuesday, Thursday, and weekends. On what single day can I do everything I have planned?"
      ]
    },
    {
      "rt": 5749.4000000059605,
      "response": "11",
      "stimulus": "<center><p>How close are you towards solving this problem?</p></center>",
      "trial_type": "html-slider-response",
      "trial_index": 6,
      "time_elapsed": 86985,
      "internal_node_id": "0.0-4.0-1.0-1.0",
      "responseType": "finish",
      "participantID": "kny45yr0mtfygdhvhhwmby89qfppvnyl",
      "problems_seen": [
        "Solve this anagram: EVANG",
        "Next week I am going to have lunch with my friend, visit the new art gallery, go to the Social Security office, and have my teeth checked at the dentist. My friend cannot meet me on Wednesday; the Social Security office is closed weekends; the dentist has office hours only on Tuesday, Friday, and Saturday; the art gallery is closed Tuesday, Thursday, and weekends. On what single day can I do everything I have planned?"
      ]
    },
    {
      "rt": 7004,
      "responses": "{\"Q0\":\"\"}",
      "trial_type": "survey-text",
      "trial_index": 7,
      "time_elapsed": 93993,
      "internal_node_id": "0.0-4.0-1.1-0.1",
      "responseType": "finish",
      "participantID": "kny45yr0mtfygdhvhhwmby89qfppvnyl",
      "problems_seen": [
        "Solve this anagram: EVANG",
        "Next week I am going to have lunch with my friend, visit the new art gallery, go to the Social Security office, and have my teeth checked at the dentist. My friend cannot meet me on Wednesday; the Social Security office is closed weekends; the dentist has office hours only on Tuesday, Friday, and Saturday; the art gallery is closed Tuesday, Thursday, and weekends. On what single day can I do everything I have planned?"
      ]
    },
    {
      "rt": 5622.70000000298,
      "response": "14",
      "stimulus": "<center><p>How close are you towards solving this problem?</p></center>",
      "trial_type": "html-slider-response",
      "trial_index": 8,
      "time_elapsed": 99617,
      "internal_node_id": "0.0-4.0-1.1-1.1",
      "responseType": "finish",
      "participantID": "kny45yr0mtfygdhvhhwmby89qfppvnyl",
      "problems_seen": [
        "Solve this anagram: EVANG",
        "Next week I am going to have lunch with my friend, visit the new art gallery, go to the Social Security office, and have my teeth checked at the dentist. My friend cannot meet me on Wednesday; the Social Security office is closed weekends; the dentist has office hours only on Tuesday, Friday, and Saturday; the art gallery is closed Tuesday, Thursday, and weekends. On what single day can I do everything I have planned?"
      ]
    },
    {
      "rt": 7004,
      "responses": "{\"Q0\":\"\"}",
      "trial_type": "survey-text",
      "trial_index": 9,
      "time_elapsed": 106624,
      "internal_node_id": "0.0-4.0-1.2-0.2",
      "responseType": "finish",
      "participantID": "kny45yr0mtfygdhvhhwmby89qfppvnyl",
      "problems_seen": [
        "Solve this anagram: EVANG",
        "Next week I am going to have lunch with my friend, visit the new art gallery, go to the Social Security office, and have my teeth checked at the dentist. My friend cannot meet me on Wednesday; the Social Security office is closed weekends; the dentist has office hours only on Tuesday, Friday, and Saturday; the art gallery is closed Tuesday, Thursday, and weekends. On what single day can I do everything I have planned?"
      ]
    },
    {
      "rt": 2438.699999988079,
      "response": "12",
      "stimulus": "<center><p>How close are you towards solving this problem?</p></center>",
      "trial_type": "html-slider-response",
      "trial_index": 10,
      "time_elapsed": 109064,
      "internal_node_id": "0.0-4.0-1.2-1.2",
      "responseType": "finish",
      "participantID": "kny45yr0mtfygdhvhhwmby89qfppvnyl",
      "problems_seen": [
        "Solve this anagram: EVANG",
        "Next week I am going to have lunch with my friend, visit the new art gallery, go to the Social Security office, and have my teeth checked at the dentist. My friend cannot meet me on Wednesday; the Social Security office is closed weekends; the dentist has office hours only on Tuesday, Friday, and Saturday; the art gallery is closed Tuesday, Thursday, and weekends. On what single day can I do everything I have planned?"
      ]
    },
    {
      "rt": 7002,
      "responses": "{\"Q0\":\"\"}",
      "trial_type": "survey-text",
      "trial_index": 11,
      "time_elapsed": 116069,
      "internal_node_id": "0.0-4.0-1.3-0.3",
      "responseType": "finish",
      "participantID": "kny45yr0mtfygdhvhhwmby89qfppvnyl",
      "problems_seen": [
        "Solve this anagram: EVANG",
        "Next week I am going to have lunch with my friend, visit the new art gallery, go to the Social Security office, and have my teeth checked at the dentist. My friend cannot meet me on Wednesday; the Social Security office is closed weekends; the dentist has office hours only on Tuesday, Friday, and Saturday; the art gallery is closed Tuesday, Thursday, and weekends. On what single day can I do everything I have planned?"
      ]
    },
    {
      "rt": 2073.9000000059605,
      "response": "5",
      "stimulus": "<center><p>How close are you towards solving this problem?</p></center>",
      "trial_type": "html-slider-response",
      "trial_index": 12,
      "time_elapsed": 118144,
      "internal_node_id": "0.0-4.0-1.3-1.3",
      "responseType": "finish",
      "participantID": "kny45yr0mtfygdhvhhwmby89qfppvnyl",
      "problems_seen": [
        "Solve this anagram: EVANG",
        "Next week I am going to have lunch with my friend, visit the new art gallery, go to the Social Security office, and have my teeth checked at the dentist. My friend cannot meet me on Wednesday; the Social Security office is closed weekends; the dentist has office hours only on Tuesday, Friday, and Saturday; the art gallery is closed Tuesday, Thursday, and weekends. On what single day can I do everything I have planned?"
      ]
    },
    {
      "rt": 7002,
      "responses": "{\"Q0\":\"\"}",
      "trial_type": "survey-text",
      "trial_index": 13,
      "time_elapsed": 125147,
      "internal_node_id": "0.0-4.0-1.4-0.4",
      "responseType": "finish",
      "participantID": "kny45yr0mtfygdhvhhwmby89qfppvnyl",
      "problems_seen": [
        "Solve this anagram: EVANG",
        "Next week I am going to have lunch with my friend, visit the new art gallery, go to the Social Security office, and have my teeth checked at the dentist. My friend cannot meet me on Wednesday; the Social Security office is closed weekends; the dentist has office hours only on Tuesday, Friday, and Saturday; the art gallery is closed Tuesday, Thursday, and weekends. On what single day can I do everything I have planned?"
      ]
    },
    {
      "rt": 2043,
      "response": "100",
      "stimulus": "<center><p>How close are you towards solving this problem?</p></center>",
      "trial_type": "html-slider-response",
      "trial_index": 14,
      "time_elapsed": 127192,
      "internal_node_id": "0.0-4.0-1.4-1.4",
      "responseType": "finish",
      "participantID": "kny45yr0mtfygdhvhhwmby89qfppvnyl",
      "problems_seen": [
        "Solve this anagram: EVANG",
